File: raw_csv_data/Nylon - 10.1.csv
Created as New Dataset,91 Du Pont
cm-1,%T
4000.00,99.65
3997.00,99.60
3994.00,99.62
3991.00,99.66
3988.00,99.63
3985.00,99.59
3982.00,99.60
3979.00,99.64
3976.00,99.59
3973.00,99.59
3970.00,99.61
3967.00,99.61
3964.00,99.63
3961.00,99.66
3958.00,99.67
3955.00,99.70
3952.00,99.71
3949.00,99.68
3946.00,99.70
3943.00,99.70
3940.00,99.64
3937.00,99.64
3934.00,99.62
3931.00,99.62
3928.00,99.61
3925.00,99.63
3922.00,99.64
3919.00,99.55
3916.00,99.57
3913.00,99.61
3910.00,99.60
3907.00,99.61
3904.00,99.68
3901.00,99.66
3898.00,99.61
3895.00,99.64
3892.00,99.62
3889.00,99.57
3886.00,99.58
3883.00,99.55
3880.00,99.65
3877.00,99.64
3874.00,99.55
3871.00,99.48
3868.00,99.45
3865.00,99.52
3862.00,99.56
3859.00,99.58
3856.00,99.54
3853.00,99.52
3850.00,99.52
3847.00,99.54
3844.00,99.50
3841.00,99.44
3838.00,99.51
3835.00,99.55
3832.00,99.52
3829.00,99.48
3826.00,99.47
3823.00,99.47
3820.00,99.46
3817.00,99.49
3814.00,99.47
3811.00,99.52
3808.00,99.51
3805.00,99.46
3802.00,99.49
3799.00,99.44
3796.00,99.43
3793.00,99.48
3790.00,99.51
3787.00,99.51
3784.00,99.50
3781.00,99.49
3778.00,99.51
3775.00,99.51
3772.00,99.45
3769.00,99.43
3766.00,99.46
3763.00,99.43
3760.00,99.41
3757.00,99.38
3754.00,99.35
3751.00,99.37
3748.00,99.34
3745.00,99.34
3742.00,99.31
3739.00,99.31
3736.00,99.31
3733.00,99.33
3730.00,99.37
3727.00,99.36
3724.00,99.29
3721.00,99.31
3718.00,99.33
3715.00,99.33
3712.00,99.32
3709.00,99.29
3706.00,99.29
3703.00,99.27
3700.00,99.31
3697.00,99.27
3694.00,99.28
3691.00,99.22
3688.00,99.25
3685.00,99.25
3682.00,99.24
3679.00,99.17
3676.00,99.19
3673.00,99.17
3670.00,99.15
3667.00,99.12
3664.00,99.19
3661.00,99.23
3658.00,99.14
3655.00,99.05
3652.00,99.05
3649.00,99.02
3646.00,99.04
3643.00,99.11
3640.00,99.10
3637.00,99.04
3634.00,99.04
3631.00,99.01
3628.00,99.08
3625.00,99.04
3622.00,99.04
3619.00,98.99
3616.00,98.97
3613.00,98.98
3610.00,98.93
3607.00,98.93
3604.00,98.87
3601.00,98.87
3598.00,98.87
3595.00,98.87
3592.00,98.85
3589.00,98.86
3586.00,98.75
3583.00,98.71
3580.00,98.78
3577.00,98.73
3574.00,98.75
3571.00,98.71
3568.00,98.60
3565.00,98.54
3562.00,98.53
3559.00,98.53
3556.00,98.51
3553.00,98.43
3550.00,98.45
3547.00,98.39
3544.00,98.34
3541.00,98.34
3538.00,98.33
3535.00,98.34
3532.00,98.30
3529.00,98.19
3526.00,98.11
3523.00,98.16
3520.00,98.16
3517.00,98.05
3514.00,98.02
3511.00,97.96
3508.00,97.91
3505.00,97.87
3502.00,97.91
3499.00,97.84
3496.00,97.81
3493.00,97.84
3490.00,97.82
3487.00,97.81
3484.00,97.78
3481.00,97.74
3478.00,97.66
3475.00,97.69
3472.00,97.75
3469.00,97.72
3466.00,97.66
3463.00,97.70
3460.00,97.67
3457.00,97.59
3454.00,97.62
3451.00,97.50
3448.00,97.50
3445.00,97.50
3442.00,97.49
3439.00,97.50
3436.00,97.48
3433.00,97.47
3430.00,97.46
3427.00,97.46
3424.00,97.44
3421.00,97.38
3418.00,97.36
3415.00,97.36
3412.00,97.38
3409.00,97.35
3406.00,97.25
3403.00,97.21
3400.00,97.21
3397.00,97.18
3394.00,97.10
3391.00,97.02
3388.00,96.96
3385.00,96.92
3382.00,96.84
3379.00,96.78
3376.00,96.69
3373.00,96.56
3370.00,96.45
3367.00,96.32
3364.00,96.15
3361.00,95.99
3358.00,95.79
3355.00,95.57
3352.00,95.33
3349.00,95.07
3346.00,94.77
3343.00,94.41
3340.00,94.01
3337.00,93.59
3334.00,93.05
3331.00,92.43
3328.00,91.83
3325.00,91.09
3322.00,90.24
3319.00,89.26
3316.00,88.20
3313.00,87.02
3310.00,85.81
3307.00,84.74
3304.00,83.86
3301.00,83.22
3298.00,82.88
3295.00,82.82
3292.00,83.12
3289.00,83.57
3286.00,84.17
3283.00,84.77
3280.00,85.39
3277.00,85.96
3274.00,86.53
3271.00,87.17
3268.00,87.74
3265.00,88.32
3262.00,88.88
3259.00,89.45
3256.00,90.01
3253.00,90.52
3250.00,90.99
3247.00,91.50
3244.00,91.94
3241.00,92.31
3238.00,92.73
3235.00,93.10
3232.00,93.39
3229.00,93.62
3226.00,93.88
3223.00,94.09
3220.00,94.27
3217.00,94.36
3214.00,94.50
3211.00,94.63
3208.00,94.70
3205.00,94.80
3202.00,94.89
3199.00,94.98
3196.00,95.13
3193.00,95.19
3190.00,95.29
3187.00,95.43
3184.00,95.57
3181.00,95.69
3178.00,95.84
3175.00,95.97
3172.00,96.14
3169.00,96.32
3166.00,96.45
3163.00,96.53
3160.00,96.65
3157.00,96.76
3154.00,96.82
3151.00,96.92
3148.00,96.92
3145.00,96.95
3142.00,97.00
3139.00,97.03
3136.00,97.01
3133.00,97.00
3130.00,96.99
3127.00,96.92
3124.00,96.88
3121.00,96.88
3118.00,96.75
3115.00,96.61
3112.00,96.52
3109.00,96.44
3106.00,96.26
3103.00,96.14
3100.00,95.99
3097.00,95.77
3094.00,95.62
3091.00,95.48
3088.00,95.42
3085.00,95.34
3082.00,95.29
3079.00,95.30
3076.00,95.32
3073.00,95.34
3070.00,95.38
3067.00,95.42
3064.00,95.49
3061.00,95.56
3058.00,95.78
3055.00,95.98
3052.00,96.21
3049.00,96.42
3046.00,96.67
3043.00,96.87
3040.00,97.00
3037.00,97.16
3034.00,97.30
3031.00,97.43
3028.00,97.50
3025.00,97.58
3022.00,97.68
3019.00,97.69
3016.00,97.73
3013.00,97.73
3010.00,97.79
3007.00,97.80
3004.00,97.77
3001.00,97.79
2998.00,97.79
2995.00,97.72
2992.00,97.63
2989.00,97.53
2986.00,97.38
2983.00,97.18
2980.00,96.91
2977.00,96.53
2974.00,96.11
2971.00,95.62
2968.00,95.12
2965.00,94.58
2962.00,94.01
2959.00,93.37
2956.00,92.54
2953.00,91.46
2950.00,90.15
2947.00,88.83
2944.00,87.68
2941.00,86.62
2938.00,85.70
2935.00,85.08
2932.00,84.92
2929.00,85.32
2926.00,86.05
2923.00,86.80
2920.00,87.59
2917.00,88.39
2914.00,89.02
2911.00,89.57
2908.00,90.12
2905.00,90.75
2902.00,91.41
2899.00,92.09
2896.00,92.57
2893.00,92.97
2890.00,93.23
2887.00,93.15
2884.00,92.84
2881.00,92.28
2878.00,91.56
2875.00,90.89
2872.00,90.40
2869.00,90.04
2866.00,89.55
2863.00,89.02
2860.00,88.74
2857.00,89.07
2854.00,89.96
2851.00,91.23
2848.00,92.61
2845.00,93.82
2842.00,94.76
2839.00,95.44
2836.00,95.84
2833.00,96.11
2830.00,96.27
2827.00,96.39
2824.00,96.49
2821.00,96.64
2818.00,96.77
2815.00,96.88
2812.00,96.98
2809.00,97.08
2806.00,97.18
2803.00,97.24
2800.00,97.35
2797.00,97.40
2794.00,97.46
2791.00,97.51
2788.00,97.54
2785.00,97.58
2782.00,97.61
2779.00,97.63
2776.00,97.69
2773.00,97.71
2770.00,97.74
2767.00,97.77
2764.00,97.78
2761.00,97.80
2758.00,97.86
2755.00,97.88
2752.00,97.86
2749.00,97.86
2746.00,97.87
2743.00,97.89
2740.00,97.92
2737.00,97.95
2734.00,97.98
2731.00,98.02
2728.00,98.04
2725.00,98.05
2722.00,98.10
2719.00,98.15
2716.00,98.17
2713.00,98.21
2710.00,98.19
2707.00,98.20
2704.00,98.23
2701.00,98.22
2698.00,98.21
2695.00,98.21
2692.00,98.24
2689.00,98.28
2686.00,98.29
2683.00,98.28
2680.00,98.30
2677.00,98.27
2674.00,98.27
2671.00,98.28
2668.00,98.30
2665.00,98.33
2662.00,98.31
2659.00,98.29
2656.00,98.29
2653.00,98.25
2650.00,98.20
2647.00,98.20
2644.00,98.20
2641.00,98.19
2638.00,98.14
2635.00,98.11
2632.00,98.12
2629.00,98.09
2626.00,98.09
2623.00,98.11
2620.00,98.05
2617.00,98.02
2614.00,98.03
2611.00,98.02
2608.00,98.00
2605.00,97.97
2602.00,97.92
2599.00,97.98
2596.00,97.91
2593.00,97.94
2590.00,97.92
2587.00,97.89
2584.00,97.88
2581.00,97.95
2578.00,97.93
2575.00,97.90
2572.00,97.85
2569.00,97.86
2566.00,97.87
2563.00,97.90
2560.00,97.90
2557.00,97.91
2554.00,97.93
2551.00,97.90
2548.00,97.86
2545.00,97.88
2542.00,97.91
2539.00,97.90
2536.00,97.90
2533.00,97.88
2530.00,97.90
2527.00,97.91
2524.00,97.99
2521.00,97.87
2518.00,97.89
2515.00,98.01
2512.00,98.00
2509.00,98.01
2506.00,98.01
2503.00,97.99
2500.00,98.00
2497.00,97.98
2494.00,97.98
2491.00,97.96
2488.00,97.96
2485.00,97.93
2482.00,97.94
2479.00,97.97
2476.00,97.94
2473.00,97.91
2470.00,97.92
2467.00,97.99
2464.00,98.00
2461.00,98.00
2458.00,98.00
2455.00,97.99
2452.00,97.99
2449.00,97.99
2446.00,97.99
2443.00,98.05
2440.00,98.07
2437.00,98.06
2434.00,98.02
2431.00,98.04
2428.00,98.06
2425.00,98.08
2422.00,98.09
2419.00,98.09
2416.00,98.07
2413.00,98.04
2410.00,98.17
2407.00,98.10
2404.00,98.10
2401.00,98.20
2398.00,98.26
2395.00,98.26
2392.00,98.28
2389.00,98.28
2386.00,98.31
2383.00,98.36
2380.00,98.43
2377.00,98.51
2374.00,98.61
2371.00,98.50
2368.00,98.45
2365.00,98.46
2362.00,98.49
2359.00,98.52
2356.00,98.52
2353.00,98.53
2350.00,98.45
2347.00,98.45
2344.00,98.45
2341.00,98.42
2338.00,98.51
2335.00,98.44
2332.00,98.44
2329.00,98.40
2326.00,98.28
2323.00,98.23
2320.00,98.22
2317.00,98.21
2314.00,98.16
2311.00,98.08
2308.00,98.09
2305.00,98.05
2302.00,97.98
2299.00,97.97
2296.00,97.93
2293.00,97.86
2290.00,97.77
2287.00,97.68
2284.00,97.58
2281.00,97.52
2278.00,97.55
2275.00,97.47
2272.00,97.45
2269.00,97.42
2266.00,97.40
2263.00,97.35
2260.00,97.21
2257.00,97.16
2254.00,97.14
2251.00,97.10
2248.00,97.12
2245.00,97.10
2242.00,97.02
2239.00,97.06
2236.00,96.97
2233.00,96.94
2230.00,96.85
2227.00,96.86
2224.00,96.95
2221.00,96.74
2218.00,96.74
2215.00,96.68
2212.00,96.72
2209.00,96.66
2206.00,96.65
2203.00,96.61
2200.00,96.52
2197.00,96.42
2194.00,96.43
2191.00,96.42
2188.00,96.17
2185.00,96.11
2182.00,96.19
2179.00,96.13
2176.00,96.04
2173.00,96.12
2170.00,96.01
2167.00,95.74
2164.00,95.48
2161.00,95.38
2158.00,95.99
2155.00,96.40
2152.00,96.35
2149.00,96.38
2146.00,96.58
2143.00,96.69
2140.00,96.90
2137.00,96.93
2134.00,97.15
2131.00,97.22
2128.00,97.23
2125.00,97.29
2122.00,97.37
2119.00,97.39
2116.00,97.27
2113.00,97.29
2110.00,97.25
2107.00,97.23
2104.00,97.18
2101.00,97.20
2098.00,97.22
2095.00,97.24
2092.00,97.26
2089.00,97.20
2086.00,97.26
2083.00,97.21
2080.00,97.20
2077.00,97.08
2074.00,97.09
2071.00,97.07
2068.00,97.07
2065.00,96.98
2062.00,96.96
2059.00,96.88
2056.00,96.94
2053.00,96.79
2050.00,96.28
2047.00,96.29
2044.00,96.36
2041.00,96.31
2038.00,96.15
2035.00,96.03
2032.00,96.06
2029.00,96.11
2026.00,96.23
2023.00,96.14
2020.00,96.02
2017.00,96.14
2014.00,96.31
2011.00,96.24
2008.00,96.48
2005.00,96.50
2002.00,96.71
1999.00,96.57
1996.00,96.58
1993.00,96.62
1990.00,96.55
1987.00,96.42
1984.00,96.35
1981.00,96.14
1978.00,96.05
1975.00,96.30
1972.00,96.44
1969.00,96.58
1966.00,96.73
1963.00,96.78
1960.00,96.80
1957.00,96.95
1954.00,96.99
1951.00,97.19
1948.00,97.24
1945.00,97.22
1942.00,97.32
1939.00,97.38
1936.00,97.39
1933.00,97.42
1930.00,97.53
1927.00,97.55
1924.00,97.61
1921.00,97.58
1918.00,97.64
1915.00,97.75
1912.00,97.73
1909.00,97.73
1906.00,97.81
1903.00,97.86
1900.00,97.83
1897.00,97.92
1894.00,97.88
1891.00,97.93
1888.00,97.90
1885.00,97.89
1882.00,97.93
1879.00,97.98
1876.00,97.94
1873.00,97.99
1870.00,98.04
1867.00,98.03
1864.00,98.05
1861.00,98.10
1858.00,98.11
1855.00,98.13
1852.00,98.19
1849.00,98.16
1846.00,98.16
1843.00,98.17
1840.00,98.18
1837.00,98.21
1834.00,98.25
1831.00,98.30
1828.00,98.24
1825.00,98.23
1822.00,98.25
1819.00,98.29
1816.00,98.37
1813.00,98.33
1810.00,98.32
1807.00,98.34
1804.00,98.34
1801.00,98.31
1798.00,98.33
1795.00,98.33
1792.00,98.34
1789.00,98.39
1786.00,98.41
1783.00,98.33
1780.00,98.34
1777.00,98.35
1774.00,98.29
1771.00,98.27
1768.00,98.26
1765.00,98.25
1762.00,98.17
1759.00,98.15
1756.00,98.10
1753.00,98.05
1750.00,97.95
1747.00,97.88
1744.00,97.80
1741.00,97.70
1738.00,97.63
1735.00,97.60
1732.00,97.64
1729.00,97.69
1726.00,97.66
1723.00,97.68
1720.00,97.69
1717.00,97.69
1714.00,97.65
1711.00,97.62
1708.00,97.58
1705.00,97.56
1702.00,97.54
1699.00,97.52
1696.00,97.43
1693.00,97.32
1690.00,97.11
1687.00,96.73
1684.00,95.99
1681.00,95.24
1678.00,94.36
1675.00,93.23
1672.00,92.15
1669.00,90.75
1666.00,89.32
1663.00,87.57
1660.00,85.56
1657.00,83.82
1654.00,81.67
1651.00,78.62
1648.00,76.53
1645.00,72.96
1642.00,70.26
1639.00,67.76
1636.00,65.46
1633.00,64.20
1630.00,64.68
1627.00,66.32
1624.00,68.41
1621.00,70.90
1618.00,73.34
1615.00,76.49
1612.00,78.74
1609.00,80.81
1606.00,82.67
1603.00,84.55
1600.00,86.20
1597.00,87.38
1594.00,88.23
1591.00,88.72
1588.00,88.87
1585.00,88.74
1582.00,88.33
1579.00,87.72
1576.00,86.66
1573.00,85.53
1570.00,84.24
1567.00,82.80
1564.00,81.35
1561.00,80.17
1558.00,77.91
1555.00,76.74
1552.00,75.42
1549.00,73.89
1546.00,72.35
1543.00,70.62
1540.00,68.65
1537.00,67.25
1534.00,66.72
1531.00,67.04
1528.00,68.32
1525.00,70.32
1522.00,72.50
1519.00,74.81
1516.00,77.01
1513.00,78.93
1510.00,80.56
1507.00,82.17
1504.00,83.81
1501.00,84.81
1498.00,85.84
1495.00,86.79
1492.00,87.47
1489.00,88.04
1486.00,88.03
1483.00,87.16
1480.00,85.15
1477.00,82.89
1474.00,81.67
1471.00,82.50
1468.00,82.17
1465.00,80.76
1462.00,81.07
1459.00,82.24
1456.00,83.46
1453.00,84.23
1450.00,84.83
1447.00,85.07
1444.00,84.96
1441.00,84.65
1438.00,84.39
1435.00,84.39
1432.00,84.83
1429.00,85.41
1426.00,85.52
1423.00,84.90
1420.00,83.41
1417.00,81.55
1414.00,82.67
1411.00,85.24
1408.00,87.15
1405.00,88.25
1402.00,88.83
1399.00,89.01
1396.00,88.92
1393.00,88.59
1390.00,88.05
1387.00,87.50
1384.00,87.05
1381.00,86.51
1378.00,85.71
1375.00,84.76
1372.00,84.10
1369.00,84.06
1366.00,84.48
1363.00,84.94
1360.00,85.41
1357.00,85.90
1354.00,86.39
1351.00,86.86
1348.00,87.36
1345.00,87.75
1342.00,88.00
1339.00,88.27
1336.00,88.49
1333.00,88.60
1330.00,88.61
1327.00,88.68
1324.00,88.85
1321.00,88.99
1318.00,88.99
1315.00,88.83
1312.00,88.61
1309.00,88.33
1306.00,87.94
1303.00,87.63
1300.00,87.51
1297.00,87.46
1294.00,87.28
1291.00,86.97
1288.00,86.36
1285.00,85.42
1282.00,84.14
1279.00,82.57
1276.00,81.35
1273.00,80.99
1270.00,81.28
1267.00,81.92
1264.00,82.69
1261.00,83.46
1258.00,84.08
1255.00,84.60
1252.00,84.98
1249.00,85.29
1246.00,85.65
1243.00,85.93
1240.00,86.13
1237.00,86.37
1234.00,86.66
1231.00,87.06
1228.00,87.42
1225.00,87.43
1222.00,87.73
1219.00,88.32
1216.00,88.63
1213.00,88.56
1210.00,88.23
1207.00,87.49
1204.00,85.96
1201.00,83.84
1198.00,82.69
1195.00,83.65
1192.00,85.38
1189.00,86.58
1186.00,86.72
1183.00,86.22
1180.00,85.86
1177.00,86.38
1174.00,87.56
1171.00,88.76
1168.00,89.55
1165.00,89.97
1162.00,90.17
1159.00,90.19
1156.00,89.81
1153.00,89.19
1150.00,88.64
1147.00,88.25
1144.00,88.13
1141.00,88.03
1138.00,88.12
1135.00,88.98
1132.00,89.95
1129.00,90.48
1126.00,90.79
1123.00,91.02
1120.00,91.09
1117.00,91.23
1114.00,91.36
1111.00,91.43
1108.00,91.39
1105.00,91.45
1102.00,91.42
1099.00,91.44
1096.00,91.54
1093.00,91.58
1090.00,91.53
1087.00,91.74
1084.00,91.97
1081.00,92.08
1078.00,92.16
1075.00,92.19
1072.00,92.05
1069.00,91.86
1066.00,91.76
1063.00,91.70
1060.00,91.77
1057.00,91.79
1054.00,91.84
1051.00,91.91
1048.00,91.99
1045.00,91.79
1042.00,91.68
1039.00,91.77
1036.00,92.00
1033.00,92.21
1030.00,92.36
1027.00,92.44
1024.00,92.54
1021.00,92.58
1018.00,92.60
1015.00,92.53
1012.00,92.59
1009.00,92.72
1006.00,92.84
1003.00,92.95
1000.00,93.01
997.00,93.12
994.00,93.19
991.00,93.34
988.00,93.38
985.00,93.45
982.00,93.63
979.00,93.73
976.00,93.77
973.00,93.82
970.00,93.75
967.00,93.76
964.00,93.73
961.00,93.60
958.00,93.45
955.00,93.34
952.00,93.17
949.00,92.89
946.00,92.54
943.00,91.79
940.00,90.42
937.00,88.72
934.00,88.10
931.00,89.08
928.00,90.20
925.00,91.00
922.00,91.51
919.00,91.84
916.00,92.15
913.00,92.37
910.00,92.20
907.00,91.90
904.00,91.99
901.00,92.54
898.00,93.01
895.00,93.24
892.00,93.33
889.00,93.40
886.00,93.43
883.00,93.44
880.00,93.51
877.00,93.65
874.00,93.61
871.00,93.68
868.00,93.79
865.00,93.64
862.00,93.63
859.00,93.64
856.00,93.56
853.00,93.48
850.00,93.45
847.00,93.28
844.00,93.22
841.00,93.41
838.00,93.33
835.00,93.19
832.00,93.14
829.00,93.16
826.00,93.01
823.00,92.80
820.00,92.69
817.00,92.58
814.00,92.55
811.00,92.45
808.00,92.16
805.00,91.96
802.00,91.76
799.00,91.45
796.00,91.26
793.00,91.20
790.00,91.09
787.00,91.03
784.00,90.95
781.00,90.62
778.00,90.45
775.00,90.25
772.00,90.00
769.00,89.73
766.00,89.36
763.00,89.14
760.00,88.73
757.00,88.40
754.00,88.12
751.00,87.89
748.00,87.73
745.00,87.47
742.00,87.07
739.00,85.99
736.00,84.69
733.00,83.21
730.00,81.90
727.00,81.45
724.00,81.56
721.00,81.55
718.00,81.59
715.00,81.52
712.00,81.04
709.00,80.66
706.00,80.22
703.00,79.53
700.00,78.88
697.00,78.17
694.00,76.95
691.00,76.01
688.00,75.42
685.00,75.01
682.00,74.92
679.00,75.33
676.00,75.97
673.00,76.27
670.00,77.06
667.00,77.75
664.00,78.07
661.00,78.51
658.00,78.95
655.00,79.28
652.00,79.98
649.00,80.63
646.00,80.63
643.00,81.37
640.00,81.71
637.00,81.49
634.00,81.41
631.00,81.87
628.00,81.48
625.00,81.49
622.00,82.07
619.00,81.35
616.00,81.63
613.00,81.89
610.00,80.98
607.00,80.02
604.00,80.96
601.00,81.30
598.00,80.25
595.00,81.20
592.00,79.89
589.00,77.16
586.00,76.95
583.00,74.88
580.00,74.21
577.00,74.44
574.00,75.15
571.00,73.85
568.00,76.81
565.00,76.63
562.00,75.61
559.00,78.25
556.00,80.17
553.00,79.52
550.00,81.01