File: raw_csv_data/Nylon - 2.csv
Created as New Dataset,83. Allied Signal Fibers
cm-1,%T
4000.00,97.88
3997.00,97.86
3994.00,97.87
3991.00,97.89
3988.00,97.83
3985.00,97.85
3982.00,97.83
3979.00,97.89
3976.00,97.92
3973.00,97.92
3970.00,97.86
3967.00,97.86
3964.00,97.85
3961.00,97.92
3958.00,97.91
3955.00,97.91
3952.00,97.96
3949.00,97.87
3946.00,97.88
3943.00,97.91
3940.00,97.90
3937.00,97.87
3934.00,97.92
3931.00,97.94
3928.00,97.88
3925.00,97.87
3922.00,97.93
3919.00,97.89
3916.00,97.87
3913.00,97.94
3910.00,97.97
3907.00,97.94
3904.00,97.97
3901.00,98.05
3898.00,97.96
3895.00,97.86
3892.00,97.89
3889.00,97.98
3886.00,97.98
3883.00,97.95
3880.00,97.91
3877.00,97.94
3874.00,97.94
3871.00,97.95
3868.00,97.92
3865.00,97.94
3862.00,97.98
3859.00,97.93
3856.00,97.93
3853.00,97.94
3850.00,97.93
3847.00,97.89
3844.00,97.98
3841.00,97.98
3838.00,97.90
3835.00,97.83
3832.00,97.78
3829.00,97.81
3826.00,97.80
3823.00,97.76
3820.00,97.79
3817.00,97.82
3814.00,97.79
3811.00,97.75
3808.00,97.77
3805.00,97.84
3802.00,97.85
3799.00,97.82
3796.00,97.74
3793.00,97.77
3790.00,97.81
3787.00,97.77
3784.00,97.72
3781.00,97.71
3778.00,97.77
3775.00,97.77
3772.00,97.74
3769.00,97.76
3766.00,97.72
3763.00,97.72
3760.00,97.69
3757.00,97.67
3754.00,97.71
3751.00,97.67
3748.00,97.74
3745.00,97.80
3742.00,97.83
3739.00,97.79
3736.00,97.73
3733.00,97.70
3730.00,97.71
3727.00,97.72
3724.00,97.67
3721.00,97.66
3718.00,97.65
3715.00,97.68
3712.00,97.72
3709.00,97.64
3706.00,97.58
3703.00,97.53
3700.00,97.59
3697.00,97.64
3694.00,97.57
3691.00,97.63
3688.00,97.52
3685.00,97.53
3682.00,97.53
3679.00,97.51
3676.00,97.46
3673.00,97.51
3670.00,97.50
3667.00,97.47
3664.00,97.43
3661.00,97.40
3658.00,97.33
3655.00,97.36
3652.00,97.46
3649.00,97.47
3646.00,97.43
3643.00,97.36
3640.00,97.33
3637.00,97.29
3634.00,97.27
3631.00,97.35
3628.00,97.27
3625.00,97.25
3622.00,97.18
3619.00,97.16
3616.00,97.18
3613.00,97.16
3610.00,97.11
3607.00,97.11
3604.00,97.05
3601.00,97.08
3598.00,97.04
3595.00,96.98
3592.00,96.99
3589.00,96.93
3586.00,96.96
3583.00,96.86
3580.00,96.79
3577.00,96.79
3574.00,96.75
3571.00,96.69
3568.00,96.71
3565.00,96.71
3562.00,96.56
3559.00,96.51
3556.00,96.57
3553.00,96.45
3550.00,96.33
3547.00,96.32
3544.00,96.32
3541.00,96.24
3538.00,96.17
3535.00,96.19
3532.00,96.04
3529.00,95.98
3526.00,95.96
3523.00,95.97
3520.00,95.89
3517.00,95.75
3514.00,95.68
3511.00,95.66
3508.00,95.62
3505.00,95.62
3502.00,95.58
3499.00,95.51
3496.00,95.42
3493.00,95.42
3490.00,95.41
3487.00,95.37
3484.00,95.41
3481.00,95.34
3478.00,95.30
3475.00,95.32
3472.00,95.31
3469.00,95.35
3466.00,95.27
3463.00,95.24
3460.00,95.27
3457.00,95.20
3454.00,95.17
3451.00,95.10
3448.00,95.09
3445.00,95.06
3442.00,95.06
3439.00,95.01
3436.00,95.03
3433.00,95.05
3430.00,95.05
3427.00,95.01
3424.00,95.00
3421.00,94.98
3418.00,94.93
3415.00,94.89
3412.00,94.90
3409.00,94.87
3406.00,94.85
3403.00,94.80
3400.00,94.77
3397.00,94.75
3394.00,94.67
3391.00,94.60
3388.00,94.61
3385.00,94.59
3382.00,94.52
3379.00,94.40
3376.00,94.33
3373.00,94.23
3370.00,94.13
3367.00,93.98
3364.00,93.84
3361.00,93.69
3358.00,93.49
3355.00,93.27
3352.00,93.06
3349.00,92.80
3346.00,92.50
3343.00,92.23
3340.00,91.85
3337.00,91.42
3334.00,90.93
3331.00,90.40
3328.00,89.78
3325.00,89.06
3322.00,88.33
3319.00,87.58
3316.00,86.81
3313.00,85.93
3310.00,85.00
3307.00,84.01
3304.00,83.05
3301.00,82.23
3298.00,81.70
3295.00,81.54
3292.00,81.64
3289.00,81.97
3286.00,82.51
3283.00,83.06
3280.00,83.60
3277.00,84.15
3274.00,84.69
3271.00,85.18
3268.00,85.67
3265.00,86.19
3262.00,86.73
3259.00,87.22
3256.00,87.70
3253.00,88.15
3250.00,88.64
3247.00,89.10
3244.00,89.50
3241.00,89.85
3238.00,90.19
3235.00,90.56
3232.00,90.87
3229.00,91.09
3226.00,91.34
3223.00,91.52
3220.00,91.71
3217.00,91.94
3214.00,92.01
3211.00,92.09
3208.00,92.23
3205.00,92.37
3202.00,92.47
3199.00,92.60
3196.00,92.70
3193.00,92.82
3190.00,93.00
3187.00,93.12
3184.00,93.29
3181.00,93.44
3178.00,93.59
3175.00,93.72
3172.00,93.83
3169.00,93.98
3166.00,94.16
3163.00,94.31
3160.00,94.39
3157.00,94.50
3154.00,94.61
3151.00,94.68
3148.00,94.75
3145.00,94.77
3142.00,94.73
3139.00,94.77
3136.00,94.78
3133.00,94.79
3130.00,94.84
3127.00,94.81
3124.00,94.70
3121.00,94.61
3118.00,94.50
3115.00,94.36
3112.00,94.19
3109.00,94.07
3106.00,93.82
3103.00,93.65
3100.00,93.51
3097.00,93.31
3094.00,93.19
3091.00,93.11
3088.00,93.14
3085.00,93.11
3082.00,93.17
3079.00,93.22
3076.00,93.25
3073.00,93.31
3070.00,93.43
3067.00,93.59
3064.00,93.69
3061.00,93.81
3058.00,93.97
3055.00,94.20
3052.00,94.42
3049.00,94.58
3046.00,94.77
3043.00,95.00
3040.00,95.16
3037.00,95.29
3034.00,95.38
3031.00,95.51
3028.00,95.61
3025.00,95.66
3022.00,95.75
3019.00,95.80
3016.00,95.82
3013.00,95.85
3010.00,95.91
3007.00,95.95
3004.00,95.96
3001.00,95.95
2998.00,95.96
2995.00,95.95
2992.00,95.91
2989.00,95.79
2986.00,95.66
2983.00,95.48
2980.00,95.27
2977.00,94.99
2974.00,94.59
2971.00,94.08
2968.00,93.48
2965.00,92.84
2962.00,92.24
2959.00,91.59
2956.00,90.79
2953.00,89.72
2950.00,88.42
2947.00,87.14
2944.00,86.11
2941.00,85.27
2938.00,84.58
2935.00,84.03
2932.00,83.80
2929.00,83.89
2926.00,84.19
2923.00,84.64
2920.00,85.32
2917.00,86.17
2914.00,87.06
2911.00,87.92
2908.00,88.63
2905.00,89.11
2902.00,89.46
2899.00,89.80
2896.00,90.25
2893.00,90.71
2890.00,91.05
2887.00,91.26
2884.00,91.23
2881.00,90.92
2878.00,90.33
2875.00,89.61
2872.00,88.86
2869.00,88.24
2866.00,87.80
2863.00,87.43
2860.00,87.20
2857.00,87.28
2854.00,87.69
2851.00,88.57
2848.00,89.88
2845.00,91.28
2842.00,92.44
2839.00,93.25
2836.00,93.74
2833.00,94.04
2830.00,94.28
2827.00,94.49
2824.00,94.63
2821.00,94.77
2818.00,94.86
2815.00,95.00
2812.00,95.09
2809.00,95.21
2806.00,95.33
2803.00,95.37
2800.00,95.45
2797.00,95.54
2794.00,95.54
2791.00,95.59
2788.00,95.67
2785.00,95.69
2782.00,95.74
2779.00,95.77
2776.00,95.84
2773.00,95.92
2770.00,95.94
2767.00,95.96
2764.00,95.97
2761.00,96.02
2758.00,96.02
2755.00,96.02
2752.00,96.03
2749.00,96.04
2746.00,96.06
2743.00,96.07
2740.00,96.08
2737.00,96.10
2734.00,96.14
2731.00,96.19
2728.00,96.22
2725.00,96.25
2722.00,96.27
2719.00,96.28
2716.00,96.35
2713.00,96.39
2710.00,96.40
2707.00,96.42
2704.00,96.43
2701.00,96.42
2698.00,96.40
2695.00,96.43
2692.00,96.44
2689.00,96.45
2686.00,96.47
2683.00,96.47
2680.00,96.48
2677.00,96.48
2674.00,96.54
2671.00,96.58
2668.00,96.56
2665.00,96.52
2662.00,96.51
2659.00,96.49
2656.00,96.46
2653.00,96.47
2650.00,96.41
2647.00,96.43
2644.00,96.41
2641.00,96.38
2638.00,96.36
2635.00,96.33
2632.00,96.34
2629.00,96.33
2626.00,96.30
2623.00,96.29
2620.00,96.28
2617.00,96.28
2614.00,96.28
2611.00,96.25
2608.00,96.21
2605.00,96.25
2602.00,96.24
2599.00,96.18
2596.00,96.20
2593.00,96.20
2590.00,96.14
2587.00,96.15
2584.00,96.14
2581.00,96.08
2578.00,96.10
2575.00,96.12
2572.00,96.13
2569.00,96.11
2566.00,96.13
2563.00,96.10
2560.00,96.08
2557.00,96.08
2554.00,96.12
2551.00,96.15
2548.00,96.11
2545.00,96.12
2542.00,96.12
2539.00,96.06
2536.00,96.07
2533.00,96.12
2530.00,96.13
2527.00,96.17
2524.00,96.15
2521.00,96.12
2518.00,96.18
2515.00,96.18
2512.00,96.21
2509.00,96.22
2506.00,96.24
2503.00,96.22
2500.00,96.25
2497.00,96.24
2494.00,96.22
2491.00,96.26
2488.00,96.24
2485.00,96.22
2482.00,96.25
2479.00,96.20
2476.00,96.23
2473.00,96.29
2470.00,96.27
2467.00,96.23
2464.00,96.23
2461.00,96.24
2458.00,96.26
2455.00,96.27
2452.00,96.25
2449.00,96.28
2446.00,96.32
2443.00,96.29
2440.00,96.26
2437.00,96.29
2434.00,96.26
2431.00,96.30
2428.00,96.34
2425.00,96.34
2422.00,96.35
2419.00,96.34
2416.00,96.33
2413.00,96.38
2410.00,96.39
2407.00,96.40
2404.00,96.42
2401.00,96.43
2398.00,96.45
2395.00,96.48
2392.00,96.49
2389.00,96.54
2386.00,96.59
2383.00,96.60
2380.00,96.69
2377.00,96.82
2374.00,96.81
2371.00,96.77
2368.00,96.84
2365.00,96.85
2362.00,96.74
2359.00,96.86
2356.00,96.82
2353.00,96.82
2350.00,96.86
2347.00,96.81
2344.00,96.83
2341.00,96.82
2338.00,96.77
2335.00,96.76
2332.00,96.79
2329.00,96.70
2326.00,96.62
2323.00,96.57
2320.00,96.56
2317.00,96.47
2314.00,96.50
2311.00,96.47
2308.00,96.47
2305.00,96.41
2302.00,96.34
2299.00,96.29
2296.00,96.23
2293.00,96.20
2290.00,96.09
2287.00,95.95
2284.00,95.94
2281.00,95.92
2278.00,95.86
2275.00,95.89
2272.00,95.82
2269.00,95.73
2266.00,95.69
2263.00,95.72
2260.00,95.58
2257.00,95.51
2254.00,95.57
2251.00,95.50
2248.00,95.42
2245.00,95.42
2242.00,95.39
2239.00,95.30
2236.00,95.28
2233.00,95.25
2230.00,95.29
2227.00,95.21
2224.00,95.18
2221.00,95.01
2218.00,95.07
2215.00,95.10
2212.00,94.98
2209.00,94.94
2206.00,95.01
2203.00,94.90
2200.00,94.95
2197.00,94.89
2194.00,94.77
2191.00,94.67
2188.00,94.58
2185.00,94.46
2182.00,94.58
2179.00,94.54
2176.00,94.50
2173.00,94.40
2170.00,94.39
2167.00,94.23
2164.00,93.95
2161.00,94.02
2158.00,94.54
2155.00,94.57
2152.00,94.60
2149.00,94.72
2146.00,94.78
2143.00,94.92
2140.00,95.04
2137.00,95.12
2134.00,95.41
2131.00,95.60
2128.00,95.67
2125.00,95.67
2122.00,95.73
2119.00,95.65
2116.00,95.67
2113.00,95.73
2110.00,95.67
2107.00,95.68
2104.00,95.57
2101.00,95.65
2098.00,95.64
2095.00,95.64
2092.00,95.76
2089.00,95.83
2086.00,95.67
2083.00,95.58
2080.00,95.60
2077.00,95.63
2074.00,95.52
2071.00,95.49
2068.00,95.44
2065.00,95.40
2062.00,95.46
2059.00,95.36
2056.00,95.30
2053.00,95.21
2050.00,94.93
2047.00,95.01
2044.00,94.94
2041.00,94.75
2038.00,94.62
2035.00,94.49
2032.00,94.64
2029.00,94.62
2026.00,94.65
2023.00,94.66
2020.00,94.81
2017.00,94.87
2014.00,94.82
2011.00,94.79
2008.00,94.79
2005.00,95.05
2002.00,95.19
1999.00,95.15
1996.00,95.27
1993.00,95.20
1990.00,95.21
1987.00,95.11
1984.00,94.92
1981.00,94.84
1978.00,94.72
1975.00,94.92
1972.00,94.95
1969.00,95.15
1966.00,95.17
1963.00,95.19
1960.00,95.28
1957.00,95.49
1954.00,95.67
1951.00,95.82
1948.00,95.83
1945.00,95.81
1942.00,95.76
1939.00,95.86
1936.00,96.02
1933.00,96.03
1930.00,96.14
1927.00,96.19
1924.00,96.24
1921.00,96.25
1918.00,96.28
1915.00,96.29
1912.00,96.34
1909.00,96.40
1906.00,96.45
1903.00,96.51
1900.00,96.48
1897.00,96.53
1894.00,96.54
1891.00,96.52
1888.00,96.54
1885.00,96.64
1882.00,96.68
1879.00,96.68
1876.00,96.68
1873.00,96.61
1870.00,96.62
1867.00,96.68
1864.00,96.74
1861.00,96.72
1858.00,96.79
1855.00,96.84
1852.00,96.90
1849.00,96.85
1846.00,96.85
1843.00,96.91
1840.00,96.95
1837.00,96.93
1834.00,97.02
1831.00,96.98
1828.00,96.95
1825.00,96.97
1822.00,96.98
1819.00,97.02
1816.00,97.07
1813.00,97.07
1810.00,97.10
1807.00,97.13
1804.00,97.15
1801.00,97.15
1798.00,97.17
1795.00,97.17
1792.00,97.20
1789.00,97.21
1786.00,97.22
1783.00,97.22
1780.00,97.20
1777.00,97.21
1774.00,97.25
1771.00,97.29
1768.00,97.21
1765.00,97.21
1762.00,97.18
1759.00,97.16
1756.00,97.08
1753.00,97.06
1750.00,96.97
1747.00,96.93
1744.00,96.92
1741.00,96.92
1738.00,96.95
1735.00,96.94
1732.00,96.99
1729.00,96.89
1726.00,96.91
1723.00,96.89
1720.00,96.92
1717.00,96.90
1714.00,96.92
1711.00,96.89
1708.00,96.89
1705.00,96.89
1702.00,96.87
1699.00,96.84
1696.00,96.74
1693.00,96.60
1690.00,96.24
1687.00,95.95
1684.00,95.33
1681.00,94.52
1678.00,93.67
1675.00,92.51
1672.00,91.28
1669.00,89.21
1666.00,87.22
1663.00,85.04
1660.00,82.92
1657.00,81.27
1654.00,79.32
1651.00,76.14
1648.00,73.81
1645.00,69.92
1642.00,67.19
1639.00,64.80
1636.00,63.12
1633.00,62.83
1630.00,63.67
1627.00,65.06
1624.00,66.71
1621.00,68.89
1618.00,71.23
1615.00,74.41
1612.00,76.54
1609.00,78.80
1606.00,81.01
1603.00,82.98
1600.00,84.56
1597.00,85.73
1594.00,86.55
1591.00,87.02
1588.00,87.12
1585.00,86.85
1582.00,86.10
1579.00,85.08
1576.00,83.25
1573.00,81.42
1570.00,79.48
1567.00,77.63
1564.00,76.11
1561.00,75.18
1558.00,73.30
1555.00,72.37
1552.00,71.11
1549.00,69.44
1546.00,67.97
1543.00,66.51
1540.00,65.58
1537.00,65.66
1534.00,66.33
1531.00,67.70
1528.00,69.29
1525.00,71.21
1522.00,73.14
1519.00,75.18
1516.00,77.00
1513.00,78.58
1510.00,79.97
1507.00,81.47
1504.00,83.04
1501.00,83.86
1498.00,84.77
1495.00,85.75
1492.00,86.36
1489.00,86.78
1486.00,86.71
1483.00,85.85
1480.00,84.49
1477.00,83.63
1474.00,83.45
1471.00,83.40
1468.00,82.45
1465.00,80.54
1462.00,79.66
1459.00,80.43
1456.00,81.93
1453.00,82.47
1450.00,82.78
1447.00,82.87
1444.00,82.74
1441.00,82.38
1438.00,82.08
1435.00,82.13
1432.00,82.65
1429.00,83.44
1426.00,83.79
1423.00,83.46
1420.00,82.90
1417.00,82.60
1414.00,83.23
1411.00,84.50
1408.00,85.81
1405.00,86.84
1402.00,87.55
1399.00,87.86
1396.00,87.91
1393.00,87.76
1390.00,87.44
1387.00,86.82
1384.00,86.17
1381.00,85.36
1378.00,84.50
1375.00,83.80
1372.00,83.33
1369.00,83.23
1366.00,83.40
1363.00,83.78
1360.00,84.28
1357.00,84.85
1354.00,85.36
1351.00,85.85
1348.00,86.18
1345.00,86.48
1342.00,86.78
1339.00,87.00
1336.00,87.19
1333.00,87.42
1330.00,87.70
1327.00,87.88
1324.00,87.85
1321.00,87.72
1318.00,87.57
1315.00,87.34
1312.00,87.02
1309.00,86.66
1306.00,86.43
1303.00,86.26
1300.00,86.10
1297.00,86.11
1294.00,86.13
1291.00,86.14
1288.00,86.11
1285.00,85.84
1282.00,85.31
1279.00,84.83
1276.00,84.60
1273.00,84.26
1270.00,83.30
1267.00,81.88
1264.00,80.82
1261.00,80.71
1258.00,81.28
1255.00,82.17
1252.00,83.08
1249.00,83.82
1246.00,84.22
1243.00,84.24
1240.00,83.95
1237.00,83.42
1234.00,83.37
1231.00,84.50
1228.00,86.12
1225.00,87.32
1222.00,87.79
1219.00,87.34
1216.00,86.45
1213.00,85.87
1210.00,85.74
1207.00,85.67
1204.00,84.84
1201.00,83.77
1198.00,84.04
1195.00,85.30
1192.00,86.55
1189.00,87.50
1186.00,88.18
1183.00,88.39
1180.00,87.96
1177.00,86.76
1174.00,84.90
1171.00,83.29
1168.00,82.93
1165.00,84.26
1162.00,86.16
1159.00,87.67
1156.00,88.74
1153.00,89.47
1150.00,90.08
1147.00,90.58
1144.00,90.95
1141.00,91.31
1138.00,91.46
1135.00,91.52
1132.00,91.35
1129.00,90.80
1126.00,89.84
1123.00,89.04
1120.00,88.68
1117.00,88.76
1114.00,89.08
1111.00,89.39
1108.00,89.76
1105.00,90.24
1102.00,90.64
1099.00,90.92
1096.00,91.07
1093.00,91.12
1090.00,91.10
1087.00,90.98
1084.00,90.77
1081.00,90.53
1078.00,90.37
1075.00,90.40
1072.00,90.47
1069.00,90.60
1066.00,90.73
1063.00,91.00
1060.00,91.26
1057.00,91.54
1054.00,91.74
1051.00,91.99
1048.00,92.25
1045.00,92.30
1042.00,92.30
1039.00,92.35
1036.00,92.25
1033.00,92.06
1030.00,91.93
1027.00,91.87
1024.00,91.96
1021.00,92.14
1018.00,92.31
1015.00,92.46
1012.00,92.41
1009.00,92.37
1006.00,92.25
1003.00,92.24
1000.00,92.22
997.00,92.26
994.00,92.19
991.00,92.07
988.00,91.91
985.00,91.72
982.00,91.52
979.00,91.16
976.00,90.75
973.00,90.57
970.00,90.73
967.00,91.01
964.00,91.10
961.00,91.00
958.00,91.04
955.00,91.35
952.00,91.50
949.00,91.66
946.00,92.00
943.00,92.29
940.00,92.42
937.00,92.37
934.00,92.10
931.00,91.73
928.00,91.57
925.00,91.83
922.00,92.13
919.00,92.30
916.00,92.51
913.00,92.60
910.00,92.70
907.00,92.77
904.00,92.91
901.00,92.99
898.00,93.04
895.00,93.09
892.00,93.09
889.00,93.14
886.00,93.20
883.00,93.27
880.00,93.27
877.00,93.32
874.00,93.40
871.00,93.42
868.00,93.34
865.00,93.38
862.00,93.39
859.00,93.42
856.00,93.36
853.00,93.30
850.00,93.29
847.00,93.22
844.00,93.11
841.00,92.89
838.00,92.57
835.00,92.24
832.00,92.10
829.00,92.17
826.00,92.30
823.00,92.33
820.00,92.40
817.00,92.29
814.00,92.08
811.00,91.87
808.00,91.76
805.00,91.62
802.00,91.33
799.00,91.18
796.00,91.02
793.00,90.79
790.00,90.49
787.00,90.21
784.00,89.95
781.00,89.62
778.00,89.38
775.00,89.16
772.00,89.01
769.00,88.84
766.00,88.66
763.00,88.47
760.00,88.15
757.00,87.66
754.00,87.12
751.00,86.67
748.00,86.20
745.00,85.59
742.00,85.03
739.00,84.42
736.00,83.46
733.00,82.02
730.00,80.77
727.00,80.18
724.00,80.34
721.00,80.28
718.00,79.87
715.00,79.34
712.00,78.83
709.00,78.57
706.00,78.32
703.00,78.16
700.00,77.72
697.00,77.19
694.00,76.65
691.00,76.07
688.00,75.81
685.00,75.62
682.00,75.84
679.00,76.10
676.00,76.43
673.00,76.82
670.00,77.10
667.00,77.70
664.00,78.04
661.00,78.61
658.00,79.39
655.00,79.76
652.00,79.98
649.00,80.35
646.00,80.64
643.00,80.85
640.00,80.99
637.00,80.41
634.00,80.39
631.00,80.20
628.00,80.00
625.00,79.78
622.00,79.49
619.00,79.94
616.00,79.91
613.00,79.82
610.00,79.00
607.00,79.23
604.00,79.38
601.00,78.77
598.00,78.45
595.00,78.88
592.00,79.19
589.00,78.11
586.00,77.46
583.00,77.42
580.00,75.40
577.00,74.35
574.00,74.54
571.00,75.56
568.00,77.17
565.00,77.44
562.00,75.66
559.00,76.24
556.00,77.33
553.00,77.74
550.00,77.61