File: raw_csv_data/Nylon - 3.csv
Created as New Dataset,103. Du Pont (Red thread)
cm-1,%T
4000.00,99.22
3997.00,99.23
3994.00,99.14
3991.00,99.17
3988.00,99.20
3985.00,99.14
3982.00,99.12
3979.00,99.16
3976.00,99.14
3973.00,99.13
3970.00,99.18
3967.00,99.20
3964.00,99.20
3961.00,99.21
3958.00,99.18
3955.00,99.19
3952.00,99.17
3949.00,99.19
3946.00,99.19
3943.00,99.20
3940.00,99.18
3937.00,99.17
3934.00,99.15
3931.00,99.13
3928.00,99.19
3925.00,99.19
3922.00,99.16
3919.00,99.15
3916.00,99.16
3913.00,99.18
3910.00,99.18
3907.00,99.16
3904.00,99.14
3901.00,99.05
3898.00,99.08
3895.00,99.10
3892.00,99.10
3889.00,99.13
3886.00,99.11
3883.00,99.17
3880.00,99.17
3877.00,99.17
3874.00,99.12
3871.00,99.11
3868.00,99.10
3865.00,99.06
3862.00,99.10
3859.00,99.12
3856.00,99.10
3853.00,99.09
3850.00,99.05
3847.00,99.09
3844.00,99.10
3841.00,99.08
3838.00,99.02
3835.00,99.05
3832.00,99.06
3829.00,99.09
3826.00,99.10
3823.00,99.05
3820.00,99.14
3817.00,99.05
3814.00,99.08
3811.00,99.09
3808.00,99.01
3805.00,99.06
3802.00,99.08
3799.00,99.02
3796.00,99.03
3793.00,99.11
3790.00,99.07
3787.00,99.04
3784.00,99.08
3781.00,99.03
3778.00,99.00
3775.00,99.06
3772.00,99.06
3769.00,98.98
3766.00,98.97
3763.00,98.99
3760.00,98.99
3757.00,99.00
3754.00,99.02
3751.00,99.00
3748.00,98.92
3745.00,98.94
3742.00,98.95
3739.00,98.95
3736.00,98.96
3733.00,98.94
3730.00,98.91
3727.00,98.90
3724.00,98.84
3721.00,98.90
3718.00,98.88
3715.00,98.91
3712.00,98.87
3709.00,98.80
3706.00,98.76
3703.00,98.68
3700.00,98.57
3697.00,98.50
3694.00,98.49
3691.00,98.46
3688.00,98.56
3685.00,98.66
3682.00,98.64
3679.00,98.58
3676.00,98.55
3673.00,98.61
3670.00,98.65
3667.00,98.59
3664.00,98.63
3661.00,98.70
3658.00,98.66
3655.00,98.61
3652.00,98.58
3649.00,98.56
3646.00,98.53
3643.00,98.62
3640.00,98.64
3637.00,98.67
3634.00,98.64
3631.00,98.62
3628.00,98.61
3625.00,98.61
3622.00,98.55
3619.00,98.41
3616.00,98.43
3613.00,98.54
3610.00,98.48
3607.00,98.53
3604.00,98.59
3601.00,98.53
3598.00,98.52
3595.00,98.52
3592.00,98.51
3589.00,98.45
3586.00,98.43
3583.00,98.46
3580.00,98.43
3577.00,98.39
3574.00,98.40
3571.00,98.43
3568.00,98.38
3565.00,98.35
3562.00,98.30
3559.00,98.32
3556.00,98.33
3553.00,98.34
3550.00,98.31
3547.00,98.25
3544.00,98.25
3541.00,98.23
3538.00,98.23
3535.00,98.20
3532.00,98.15
3529.00,98.10
3526.00,98.08
3523.00,98.06
3520.00,98.08
3517.00,98.02
3514.00,98.06
3511.00,98.00
3508.00,97.98
3505.00,98.04
3502.00,98.01
3499.00,97.98
3496.00,98.00
3493.00,97.98
3490.00,97.97
3487.00,97.91
3484.00,97.88
3481.00,97.86
3478.00,97.88
3475.00,97.85
3472.00,97.88
3469.00,97.87
3466.00,97.91
3463.00,97.88
3460.00,97.81
3457.00,97.81
3454.00,97.79
3451.00,97.69
3448.00,97.64
3445.00,97.63
3442.00,97.64
3439.00,97.60
3436.00,97.55
3433.00,97.57
3430.00,97.65
3427.00,97.68
3424.00,97.67
3421.00,97.68
3418.00,97.65
3415.00,97.68
3412.00,97.65
3409.00,97.61
3406.00,97.61
3403.00,97.65
3400.00,97.59
3397.00,97.51
3394.00,97.51
3391.00,97.51
3388.00,97.47
3385.00,97.46
3382.00,97.36
3379.00,97.33
3376.00,97.27
3373.00,97.25
3370.00,97.19
3367.00,97.08
3364.00,96.99
3361.00,96.88
3358.00,96.79
3355.00,96.77
3352.00,96.61
3349.00,96.42
3346.00,96.25
3343.00,96.08
3340.00,95.88
3337.00,95.74
3334.00,95.66
3331.00,95.49
3328.00,95.27
3325.00,94.98
3322.00,94.76
3319.00,94.59
3316.00,94.45
3313.00,94.28
3310.00,94.12
3307.00,93.93
3304.00,93.77
3301.00,93.60
3298.00,93.42
3295.00,93.38
3292.00,93.37
3289.00,93.26
3286.00,93.15
3283.00,93.12
3280.00,93.15
3277.00,93.12
3274.00,93.16
3271.00,93.25
3268.00,93.31
3265.00,93.36
3262.00,93.44
3259.00,93.61
3256.00,93.71
3253.00,93.88
3250.00,94.07
3247.00,94.32
3244.00,94.52
3241.00,94.72
3238.00,94.95
3235.00,95.16
3232.00,95.37
3229.00,95.49
3226.00,95.66
3223.00,95.78
3220.00,95.88
3217.00,96.04
3214.00,96.16
3211.00,96.21
3208.00,96.24
3205.00,96.31
3202.00,96.35
3199.00,96.34
3196.00,96.39
3193.00,96.48
3190.00,96.51
3187.00,96.50
3184.00,96.62
3181.00,96.75
3178.00,96.79
3175.00,96.83
3172.00,96.94
3169.00,97.00
3166.00,97.05
3163.00,97.15
3160.00,97.21
3157.00,97.30
3154.00,97.37
3151.00,97.43
3148.00,97.47
3145.00,97.47
3142.00,97.50
3139.00,97.54
3136.00,97.58
3133.00,97.60
3130.00,97.53
3127.00,97.56
3124.00,97.55
3121.00,97.57
3118.00,97.56
3115.00,97.50
3112.00,97.45
3109.00,97.41
3106.00,97.38
3103.00,97.31
3100.00,97.23
3097.00,97.15
3094.00,97.11
3091.00,97.06
3088.00,96.93
3085.00,96.82
3082.00,96.77
3079.00,96.73
3076.00,96.67
3073.00,96.62
3070.00,96.61
3067.00,96.67
3064.00,96.73
3061.00,96.82
3058.00,96.90
3055.00,96.99
3052.00,97.07
3049.00,97.22
3046.00,97.35
3043.00,97.46
3040.00,97.53
3037.00,97.57
3034.00,97.69
3031.00,97.78
3028.00,97.79
3025.00,97.80
3022.00,97.83
3019.00,97.90
3016.00,97.98
3013.00,98.02
3010.00,98.02
3007.00,98.04
3004.00,98.06
3001.00,98.05
2998.00,98.03
2995.00,98.07
2992.00,98.03
2989.00,97.95
2986.00,97.93
2983.00,97.87
2980.00,97.76
2977.00,97.65
2974.00,97.42
2971.00,97.16
2968.00,96.83
2965.00,96.45
2962.00,96.00
2959.00,95.46
2956.00,94.87
2953.00,94.21
2950.00,93.41
2947.00,92.50
2944.00,91.41
2941.00,90.09
2938.00,88.63
2935.00,87.04
2932.00,85.46
2929.00,84.06
2926.00,82.97
2923.00,82.28
2920.00,82.08
2917.00,82.36
2914.00,83.13
2911.00,84.23
2908.00,85.24
2905.00,86.10
2902.00,86.78
2899.00,87.36
2896.00,87.95
2893.00,88.62
2890.00,89.33
2887.00,90.09
2884.00,90.88
2881.00,91.60
2878.00,92.13
2875.00,92.42
2872.00,92.43
2869.00,92.13
2866.00,91.43
2863.00,90.32
2860.00,88.92
2857.00,87.53
2854.00,86.32
2851.00,85.71
2848.00,86.10
2845.00,87.26
2842.00,88.85
2839.00,90.54
2836.00,91.96
2833.00,93.05
2830.00,93.98
2827.00,94.70
2824.00,95.17
2821.00,95.48
2818.00,95.69
2815.00,95.87
2812.00,96.04
2809.00,96.16
2806.00,96.25
2803.00,96.34
2800.00,96.44
2797.00,96.56
2794.00,96.64
2791.00,96.73
2788.00,96.84
2785.00,96.89
2782.00,96.93
2779.00,97.03
2776.00,97.08
2773.00,97.15
2770.00,97.17
2767.00,97.23
2764.00,97.24
2761.00,97.29
2758.00,97.33
2755.00,97.36
2752.00,97.35
2749.00,97.36
2746.00,97.41
2743.00,97.44
2740.00,97.44
2737.00,97.46
2734.00,97.46
2731.00,97.46
2728.00,97.43
2725.00,97.47
2722.00,97.53
2719.00,97.53
2716.00,97.52
2713.00,97.56
2710.00,97.58
2707.00,97.54
2704.00,97.55
2701.00,97.57
2698.00,97.58
2695.00,97.59
2692.00,97.59
2689.00,97.59
2686.00,97.59
2683.00,97.60
2680.00,97.59
2677.00,97.59
2674.00,97.59
2671.00,97.58
2668.00,97.64
2665.00,97.66
2662.00,97.65
2659.00,97.60
2656.00,97.61
2653.00,97.62
2650.00,97.59
2647.00,97.57
2644.00,97.59
2641.00,97.58
2638.00,97.53
2635.00,97.54
2632.00,97.53
2629.00,97.47
2626.00,97.49
2623.00,97.55
2620.00,97.55
2617.00,97.54
2614.00,97.55
2611.00,97.58
2608.00,97.51
2605.00,97.54
2602.00,97.53
2599.00,97.53
2596.00,97.52
2593.00,97.50
2590.00,97.53
2587.00,97.54
2584.00,97.50
2581.00,97.52
2578.00,97.54
2575.00,97.53
2572.00,97.49
2569.00,97.52
2566.00,97.48
2563.00,97.45
2560.00,97.51
2557.00,97.51
2554.00,97.53
2551.00,97.49
2548.00,97.53
2545.00,97.51
2542.00,97.53
2539.00,97.52
2536.00,97.56
2533.00,97.59
2530.00,97.55
2527.00,97.56
2524.00,97.61
2521.00,97.61
2518.00,97.55
2515.00,97.56
2512.00,97.64
2509.00,97.63
2506.00,97.57
2503.00,97.57
2500.00,97.58
2497.00,97.59
2494.00,97.59
2491.00,97.62
2488.00,97.59
2485.00,97.62
2482.00,97.59
2479.00,97.61
2476.00,97.67
2473.00,97.65
2470.00,97.70
2467.00,97.69
2464.00,97.64
2461.00,97.66
2458.00,97.67
2455.00,97.69
2452.00,97.67
2449.00,97.66
2446.00,97.68
2443.00,97.69
2440.00,97.70
2437.00,97.74
2434.00,97.71
2431.00,97.70
2428.00,97.76
2425.00,97.74
2422.00,97.73
2419.00,97.73
2416.00,97.73
2413.00,97.78
2410.00,97.82
2407.00,97.81
2404.00,97.78
2401.00,97.82
2398.00,97.87
2395.00,97.89
2392.00,97.88
2389.00,97.89
2386.00,97.94
2383.00,97.92
2380.00,97.95
2377.00,97.97
2374.00,98.00
2371.00,97.97
2368.00,97.95
2365.00,97.98
2362.00,98.01
2359.00,97.90
2356.00,97.85
2353.00,97.91
2350.00,97.99
2347.00,98.06
2344.00,98.01
2341.00,97.95
2338.00,97.93
2335.00,97.96
2332.00,98.02
2329.00,97.98
2326.00,97.88
2323.00,97.84
2320.00,97.81
2317.00,97.83
2314.00,97.86
2311.00,97.82
2308.00,97.81
2305.00,97.76
2302.00,97.79
2299.00,97.80
2296.00,97.73
2293.00,97.67
2290.00,97.59
2287.00,97.53
2284.00,97.50
2281.00,97.47
2278.00,97.45
2275.00,97.43
2272.00,97.38
2269.00,97.28
2266.00,97.37
2263.00,97.33
2260.00,97.28
2257.00,97.27
2254.00,97.29
2251.00,97.30
2248.00,97.28
2245.00,97.28
2242.00,97.20
2239.00,97.12
2236.00,97.12
2233.00,97.07
2230.00,97.17
2227.00,97.11
2224.00,97.05
2221.00,97.17
2218.00,97.12
2215.00,97.03
2212.00,96.90
2209.00,96.95
2206.00,96.96
2203.00,96.88
2200.00,96.69
2197.00,96.73
2194.00,96.82
2191.00,96.94
2188.00,96.77
2185.00,96.66
2182.00,96.71
2179.00,96.64
2176.00,96.65
2173.00,96.72
2170.00,96.56
2167.00,96.47
2164.00,96.39
2161.00,96.29
2158.00,96.62
2155.00,96.81
2152.00,96.84
2149.00,96.72
2146.00,96.82
2143.00,97.07
2140.00,97.08
2137.00,97.05
2134.00,97.19
2131.00,97.26
2128.00,97.33
2125.00,97.33
2122.00,97.33
2119.00,97.39
2116.00,97.31
2113.00,97.38
2110.00,97.40
2107.00,97.46
2104.00,97.45
2101.00,97.37
2098.00,97.34
2095.00,97.44
2092.00,97.51
2089.00,97.29
2086.00,97.35
2083.00,97.42
2080.00,97.35
2077.00,97.39
2074.00,97.27
2071.00,97.28
2068.00,97.37
2065.00,97.30
2062.00,97.31
2059.00,97.24
2056.00,97.16
2053.00,97.13
2050.00,96.91
2047.00,96.87
2044.00,96.87
2041.00,96.95
2038.00,96.83
2035.00,96.75
2032.00,96.81
2029.00,96.75
2026.00,96.72
2023.00,96.68
2020.00,96.83
2017.00,96.95
2014.00,96.91
2011.00,96.95
2008.00,96.98
2005.00,97.02
2002.00,97.12
1999.00,97.19
1996.00,97.07
1993.00,96.90
1990.00,97.07
1987.00,96.96
1984.00,96.84
1981.00,96.89
1978.00,96.82
1975.00,97.01
1972.00,96.91
1969.00,96.97
1966.00,97.06
1963.00,97.17
1960.00,97.20
1957.00,97.23
1954.00,97.40
1951.00,97.38
1948.00,97.39
1945.00,97.50
1942.00,97.53
1939.00,97.59
1936.00,97.60
1933.00,97.66
1930.00,97.76
1927.00,97.75
1924.00,97.77
1921.00,97.84
1918.00,97.82
1915.00,97.81
1912.00,97.88
1909.00,97.92
1906.00,97.95
1903.00,97.95
1900.00,97.96
1897.00,97.98
1894.00,98.05
1891.00,98.09
1888.00,98.05
1885.00,98.01
1882.00,98.06
1879.00,98.12
1876.00,98.08
1873.00,98.08
1870.00,98.10
1867.00,98.18
1864.00,98.20
1861.00,98.18
1858.00,98.23
1855.00,98.23
1852.00,98.22
1849.00,98.24
1846.00,98.25
1843.00,98.29
1840.00,98.28
1837.00,98.34
1834.00,98.34
1831.00,98.38
1828.00,98.38
1825.00,98.41
1822.00,98.45
1819.00,98.47
1816.00,98.46
1813.00,98.47
1810.00,98.46
1807.00,98.51
1804.00,98.53
1801.00,98.53
1798.00,98.54
1795.00,98.57
1792.00,98.55
1789.00,98.56
1786.00,98.61
1783.00,98.58
1780.00,98.56
1777.00,98.56
1774.00,98.60
1771.00,98.60
1768.00,98.59
1765.00,98.53
1762.00,98.53
1759.00,98.53
1756.00,98.48
1753.00,98.46
1750.00,98.36
1747.00,98.26
1744.00,98.24
1741.00,98.23
1738.00,98.12
1735.00,98.14
1732.00,98.04
1729.00,98.01
1726.00,98.01
1723.00,97.97
1720.00,97.90
1717.00,97.88
1714.00,97.80
1711.00,97.82
1708.00,97.87
1705.00,97.95
1702.00,98.09
1699.00,98.21
1696.00,98.20
1693.00,98.03
1690.00,97.78
1687.00,97.53
1684.00,96.91
1681.00,96.14
1678.00,95.46
1675.00,94.58
1672.00,93.75
1669.00,92.79
1666.00,91.82
1663.00,90.52
1660.00,89.08
1657.00,87.79
1654.00,86.38
1651.00,84.18
1648.00,82.65
1645.00,80.58
1642.00,78.96
1639.00,77.64
1636.00,77.09
1633.00,77.53
1630.00,78.22
1627.00,79.26
1624.00,80.37
1621.00,81.94
1618.00,83.49
1615.00,85.67
1612.00,87.14
1609.00,88.60
1606.00,89.89
1603.00,90.95
1600.00,91.85
1597.00,92.54
1594.00,93.09
1591.00,93.41
1588.00,93.57
1585.00,93.51
1582.00,93.32
1579.00,93.06
1576.00,92.61
1573.00,91.88
1570.00,90.93
1567.00,89.65
1564.00,88.22
1561.00,87.06
1558.00,84.64
1555.00,83.18
1552.00,81.65
1549.00,80.25
1546.00,79.17
1543.00,78.37
1540.00,77.97
1537.00,77.88
1534.00,78.11
1531.00,78.89
1528.00,79.64
1525.00,80.73
1522.00,81.87
1519.00,83.02
1516.00,83.99
1513.00,84.80
1510.00,85.46
1507.00,86.42
1504.00,87.31
1501.00,87.89
1498.00,88.76
1495.00,89.75
1492.00,90.37
1489.00,91.14
1486.00,91.74
1483.00,92.12
1480.00,92.37
1477.00,92.53
1474.00,92.37
1471.00,91.22
1468.00,90.01
1465.00,89.55
1462.00,89.53
1459.00,89.49
1456.00,88.90
1453.00,87.71
1450.00,86.37
1447.00,85.79
1444.00,86.49
1441.00,87.65
1438.00,88.49
1435.00,89.33
1432.00,90.01
1429.00,90.83
1426.00,91.21
1423.00,91.29
1420.00,91.28
1417.00,91.63
1414.00,92.15
1411.00,92.77
1408.00,93.21
1405.00,93.51
1402.00,93.70
1399.00,93.77
1396.00,93.80
1393.00,93.76
1390.00,93.57
1387.00,93.23
1384.00,92.80
1381.00,92.42
1378.00,92.13
1375.00,91.95
1372.00,91.84
1369.00,91.64
1366.00,91.32
1363.00,91.03
1360.00,90.91
1357.00,90.88
1354.00,90.96
1351.00,91.11
1348.00,91.29
1345.00,91.44
1342.00,91.42
1339.00,91.31
1336.00,91.29
1333.00,91.48
1330.00,91.81
1327.00,92.15
1324.00,92.38
1321.00,92.51
1318.00,92.59
1315.00,92.62
1312.00,92.61
1309.00,92.55
1306.00,92.43
1303.00,92.37
1300.00,92.52
1297.00,92.91
1294.00,93.25
1291.00,93.32
1288.00,93.18
1285.00,92.89
1282.00,92.54
1279.00,92.27
1276.00,92.15
1273.00,92.13
1270.00,91.99
1267.00,91.80
1264.00,91.59
1261.00,91.39
1258.00,91.28
1255.00,91.18
1252.00,91.06
1249.00,90.98
1246.00,91.04
1243.00,91.22
1240.00,91.29
1237.00,91.35
1234.00,91.56
1231.00,91.71
1228.00,91.62
1225.00,91.30
1222.00,91.35
1219.00,91.77
1216.00,92.15
1213.00,92.43
1210.00,92.58
1207.00,92.73
1204.00,92.88
1201.00,93.00
1198.00,93.08
1195.00,93.23
1192.00,93.45
1189.00,93.68
1186.00,93.85
1183.00,93.97
1180.00,94.03
1177.00,94.09
1174.00,94.18
1171.00,94.26
1168.00,94.23
1165.00,93.97
1162.00,93.63
1159.00,93.36
1156.00,93.14
1153.00,93.34
1150.00,93.85
1147.00,94.25
1144.00,94.42
1141.00,94.21
1138.00,93.66
1135.00,92.75
1132.00,91.94
1129.00,91.46
1126.00,91.39
1123.00,91.55
1120.00,91.66
1117.00,91.70
1114.00,91.81
1111.00,92.11
1108.00,92.22
1105.00,92.32
1102.00,92.29
1099.00,92.37
1096.00,92.61
1093.00,92.91
1090.00,93.22
1087.00,93.60
1084.00,93.95
1081.00,94.05
1078.00,94.21
1075.00,94.42
1072.00,94.60
1069.00,94.61
1066.00,94.70
1063.00,94.86
1060.00,94.78
1057.00,94.78
1054.00,94.71
1051.00,94.65
1048.00,94.60
1045.00,94.38
1042.00,94.13
1039.00,93.78
1036.00,93.25
1033.00,92.82
1030.00,92.77
1027.00,93.09
1024.00,93.64
1021.00,94.01
1018.00,94.19
1015.00,94.09
1012.00,93.74
1009.00,93.36
1006.00,93.47
1003.00,93.93
1000.00,94.44
997.00,94.88
994.00,95.21
991.00,95.35
988.00,95.39
985.00,95.38
982.00,95.39
979.00,95.35
976.00,95.29
973.00,95.18
970.00,94.93
967.00,94.60
964.00,94.20
961.00,93.79
958.00,93.61
955.00,93.99
952.00,94.50
949.00,94.76
946.00,94.90
943.00,94.91
940.00,94.92
937.00,95.10
934.00,95.22
931.00,95.33
928.00,95.46
925.00,95.55
922.00,95.57
919.00,95.34
916.00,94.98
913.00,94.54
910.00,94.42
907.00,94.49
904.00,94.26
901.00,93.45
898.00,93.01
895.00,93.79
892.00,94.93
889.00,95.60
886.00,95.98
883.00,96.20
880.00,96.37
877.00,96.46
874.00,96.51
871.00,96.68
868.00,96.79
865.00,96.89
862.00,96.96
859.00,97.06
856.00,97.11
853.00,97.10
850.00,97.11
847.00,97.15
844.00,97.14
841.00,97.14
838.00,97.11
835.00,97.06
832.00,97.08
829.00,97.07
826.00,97.02
823.00,96.98
820.00,96.94
817.00,96.94
814.00,97.02
811.00,97.04
808.00,97.03
805.00,97.04
802.00,96.82
799.00,96.77
796.00,96.61
793.00,96.43
790.00,96.39
787.00,96.43
784.00,96.31
781.00,96.32
778.00,96.19
775.00,96.20
772.00,96.11
769.00,95.85
766.00,95.78
763.00,95.56
760.00,95.34
757.00,95.12
754.00,94.89
751.00,94.92
748.00,94.70
745.00,94.56
742.00,94.36
739.00,94.05
736.00,93.72
733.00,93.38
730.00,93.01
727.00,92.31
724.00,91.51
721.00,90.98
718.00,91.09
715.00,91.21
712.00,91.32
709.00,91.23
706.00,91.05
703.00,90.85
700.00,90.74
697.00,90.58
694.00,90.47
691.00,90.48
688.00,90.63
685.00,90.89
682.00,91.13
679.00,91.42
676.00,91.62
673.00,91.78
670.00,91.67
667.00,92.00
664.00,92.09
661.00,92.27
658.00,92.20
655.00,92.19
652.00,92.18
649.00,91.90
646.00,91.82
643.00,91.79
640.00,91.60
637.00,91.67
634.00,91.40
631.00,91.84
628.00,91.85
625.00,92.32
622.00,92.89
619.00,92.38
616.00,92.37
613.00,93.17
610.00,91.98
607.00,92.29
604.00,92.44
601.00,93.24
598.00,92.64
595.00,91.91
592.00,91.40
589.00,91.87
586.00,91.90
583.00,90.80
580.00,91.23
577.00,92.23
574.00,92.58
571.00,91.41
568.00,91.83
565.00,92.89
562.00,91.61
559.00,91.42
556.00,89.87
553.00,91.85
550.00,91.67