File: raw_csv_data/Nylon - 6.csv
Created as New Dataset,74 Nylon Allied Signal Fibers
cm-1,%T
4000.00,102.37
3997.00,102.28
3994.00,102.25
3991.00,102.26
3988.00,102.21
3985.00,102.26
3982.00,102.35
3979.00,102.33
3976.00,102.26
3973.00,102.28
3970.00,102.26
3967.00,102.27
3964.00,102.27
3961.00,102.24
3958.00,102.25
3955.00,102.25
3952.00,102.28
3949.00,102.28
3946.00,102.30
3943.00,102.31
3940.00,102.24
3937.00,102.23
3934.00,102.28
3931.00,102.21
3928.00,102.22
3925.00,102.24
3922.00,102.20
3919.00,102.25
3916.00,102.29
3913.00,102.21
3910.00,102.17
3907.00,102.17
3904.00,102.16
3901.00,102.09
3898.00,102.16
3895.00,102.16
3892.00,102.18
3889.00,102.15
3886.00,102.14
3883.00,102.12
3880.00,102.13
3877.00,102.12
3874.00,102.16
3871.00,102.13
3868.00,102.10
3865.00,102.15
3862.00,102.14
3859.00,102.07
3856.00,102.00
3853.00,102.01
3850.00,102.09
3847.00,102.15
3844.00,102.16
3841.00,102.10
3838.00,102.06
3835.00,102.05
3832.00,102.12
3829.00,102.12
3826.00,102.11
3823.00,102.05
3820.00,102.00
3817.00,102.05
3814.00,102.13
3811.00,102.11
3808.00,102.08
3805.00,101.97
3802.00,102.04
3799.00,102.04
3796.00,101.99
3793.00,102.03
3790.00,102.10
3787.00,102.07
3784.00,102.05
3781.00,102.00
3778.00,102.12
3775.00,102.14
3772.00,102.04
3769.00,102.00
3766.00,101.97
3763.00,102.00
3760.00,101.99
3757.00,101.96
3754.00,101.88
3751.00,101.87
3748.00,101.82
3745.00,101.85
3742.00,101.90
3739.00,101.90
3736.00,101.93
3733.00,101.97
3730.00,101.97
3727.00,101.98
3724.00,101.96
3721.00,101.94
3718.00,101.92
3715.00,101.90
3712.00,101.89
3709.00,101.93
3706.00,101.98
3703.00,102.01
3700.00,101.98
3697.00,102.01
3694.00,101.94
3691.00,101.91
3688.00,101.90
3685.00,101.92
3682.00,101.96
3679.00,101.84
3676.00,101.75
3673.00,101.76
3670.00,101.75
3667.00,101.77
3664.00,101.91
3661.00,101.93
3658.00,101.85
3655.00,101.76
3652.00,101.68
3649.00,101.66
3646.00,101.74
3643.00,101.82
3640.00,101.85
3637.00,101.82
3634.00,101.78
3631.00,101.75
3628.00,101.71
3625.00,101.75
3622.00,101.69
3619.00,101.67
3616.00,101.64
3613.00,101.70
3610.00,101.61
3607.00,101.66
3604.00,101.69
3601.00,101.61
3598.00,101.60
3595.00,101.62
3592.00,101.54
3589.00,101.49
3586.00,101.44
3583.00,101.47
3580.00,101.52
3577.00,101.48
3574.00,101.41
3571.00,101.33
3568.00,101.27
3565.00,101.30
3562.00,101.31
3559.00,101.27
3556.00,101.26
3553.00,101.18
3550.00,101.07
3547.00,101.10
3544.00,101.11
3541.00,101.02
3538.00,101.05
3535.00,101.02
3532.00,100.93
3529.00,100.87
3526.00,100.84
3523.00,100.78
3520.00,100.72
3517.00,100.65
3514.00,100.65
3511.00,100.54
3508.00,100.57
3505.00,100.55
3502.00,100.47
3499.00,100.48
3496.00,100.50
3493.00,100.44
3490.00,100.45
3487.00,100.41
3484.00,100.31
3481.00,100.24
3478.00,100.29
3475.00,100.30
3472.00,100.31
3469.00,100.30
3466.00,100.24
3463.00,100.18
3460.00,100.16
3457.00,100.12
3454.00,100.13
3451.00,100.12
3448.00,100.11
3445.00,100.04
3442.00,100.08
3439.00,99.99
3436.00,99.93
3433.00,99.93
3430.00,99.97
3427.00,99.99
3424.00,99.95
3421.00,99.88
3418.00,99.81
3415.00,99.79
3412.00,99.79
3409.00,99.72
3406.00,99.66
3403.00,99.64
3400.00,99.59
3397.00,99.54
3394.00,99.48
3391.00,99.40
3388.00,99.36
3385.00,99.27
3382.00,99.15
3379.00,99.06
3376.00,98.91
3373.00,98.72
3370.00,98.60
3367.00,98.42
3364.00,98.21
3361.00,98.00
3358.00,97.77
3355.00,97.56
3352.00,97.29
3349.00,96.99
3346.00,96.58
3343.00,96.23
3340.00,95.84
3337.00,95.48
3334.00,95.06
3331.00,94.57
3328.00,94.07
3325.00,93.59
3322.00,93.10
3319.00,92.50
3316.00,91.95
3313.00,91.37
3310.00,90.83
3307.00,90.31
3304.00,89.80
3301.00,89.40
3298.00,89.20
3295.00,89.14
3292.00,89.19
3289.00,89.39
3286.00,89.63
3283.00,89.81
3280.00,90.04
3277.00,90.37
3274.00,90.70
3271.00,91.03
3268.00,91.35
3265.00,91.71
3262.00,92.07
3259.00,92.51
3256.00,92.97
3253.00,93.37
3250.00,93.78
3247.00,94.18
3244.00,94.60
3241.00,94.95
3238.00,95.32
3235.00,95.73
3232.00,96.06
3229.00,96.30
3226.00,96.47
3223.00,96.67
3220.00,96.84
3217.00,97.00
3214.00,97.15
3211.00,97.26
3208.00,97.35
3205.00,97.45
3202.00,97.57
3199.00,97.65
3196.00,97.79
3193.00,97.96
3190.00,98.03
3187.00,98.21
3184.00,98.36
3181.00,98.48
3178.00,98.60
3175.00,98.76
3172.00,98.89
3169.00,99.00
3166.00,99.10
3163.00,99.21
3160.00,99.30
3157.00,99.42
3154.00,99.52
3151.00,99.54
3148.00,99.61
3145.00,99.64
3142.00,99.68
3139.00,99.72
3136.00,99.69
3133.00,99.65
3130.00,99.59
3127.00,99.56
3124.00,99.46
3121.00,99.40
3118.00,99.32
3115.00,99.19
3112.00,99.09
3109.00,98.96
3106.00,98.76
3103.00,98.54
3100.00,98.43
3097.00,98.29
3094.00,98.12
3091.00,97.98
3088.00,97.89
3085.00,97.79
3082.00,97.80
3079.00,97.81
3076.00,97.79
3073.00,97.85
3070.00,97.95
3067.00,98.06
3064.00,98.17
3061.00,98.36
3058.00,98.49
3055.00,98.69
3052.00,98.98
3049.00,99.11
3046.00,99.27
3043.00,99.48
3040.00,99.60
3037.00,99.68
3034.00,99.84
3031.00,99.89
3028.00,99.97
3025.00,100.02
3022.00,100.05
3019.00,100.10
3016.00,100.16
3013.00,100.22
3010.00,100.16
3007.00,100.16
3004.00,100.23
3001.00,100.13
2998.00,100.02
2995.00,100.06
2992.00,99.98
2989.00,99.70
2986.00,99.55
2983.00,99.33
2980.00,99.00
2977.00,98.67
2974.00,98.18
2971.00,97.64
2968.00,97.11
2965.00,96.44
2962.00,95.75
2959.00,95.04
2956.00,94.29
2953.00,93.28
2950.00,92.22
2947.00,91.24
2944.00,90.34
2941.00,89.66
2938.00,89.16
2935.00,88.80
2932.00,88.73
2929.00,88.94
2926.00,89.33
2923.00,89.87
2920.00,90.55
2917.00,91.32
2914.00,92.10
2911.00,92.68
2908.00,93.20
2905.00,93.68
2902.00,94.07
2899.00,94.38
2896.00,94.74
2893.00,95.13
2890.00,95.46
2887.00,95.57
2884.00,95.49
2881.00,95.20
2878.00,94.66
2875.00,94.06
2872.00,93.42
2869.00,92.84
2866.00,92.37
2863.00,92.09
2860.00,92.07
2857.00,92.49
2854.00,93.16
2851.00,94.07
2848.00,95.30
2845.00,96.48
2842.00,97.45
2839.00,98.15
2836.00,98.59
2833.00,98.88
2830.00,99.09
2827.00,99.22
2824.00,99.32
2821.00,99.46
2818.00,99.54
2815.00,99.60
2812.00,99.73
2809.00,99.84
2806.00,99.89
2803.00,99.97
2800.00,100.05
2797.00,100.10
2794.00,100.16
2791.00,100.15
2788.00,100.17
2785.00,100.24
2782.00,100.29
2779.00,100.32
2776.00,100.35
2773.00,100.36
2770.00,100.40
2767.00,100.47
2764.00,100.45
2761.00,100.48
2758.00,100.52
2755.00,100.48
2752.00,100.47
2749.00,100.53
2746.00,100.53
2743.00,100.53
2740.00,100.52
2737.00,100.56
2734.00,100.58
2731.00,100.59
2728.00,100.60
2725.00,100.64
2722.00,100.67
2719.00,100.65
2716.00,100.66
2713.00,100.73
2710.00,100.73
2707.00,100.69
2704.00,100.68
2701.00,100.70
2698.00,100.70
2695.00,100.69
2692.00,100.75
2689.00,100.76
2686.00,100.78
2683.00,100.80
2680.00,100.80
2677.00,100.77
2674.00,100.76
2671.00,100.76
2668.00,100.78
2665.00,100.80
2662.00,100.76
2659.00,100.72
2656.00,100.69
2653.00,100.69
2650.00,100.65
2647.00,100.68
2644.00,100.66
2641.00,100.65
2638.00,100.66
2635.00,100.64
2632.00,100.65
2629.00,100.63
2626.00,100.63
2623.00,100.60
2620.00,100.64
2617.00,100.67
2614.00,100.65
2611.00,100.65
2608.00,100.64
2605.00,100.64
2602.00,100.66
2599.00,100.66
2596.00,100.65
2593.00,100.63
2590.00,100.64
2587.00,100.66
2584.00,100.66
2581.00,100.65
2578.00,100.61
2575.00,100.63
2572.00,100.64
2569.00,100.65
2566.00,100.69
2563.00,100.66
2560.00,100.68
2557.00,100.64
2554.00,100.63
2551.00,100.66
2548.00,100.65
2545.00,100.62
2542.00,100.65
2539.00,100.63
2536.00,100.65
2533.00,100.67
2530.00,100.65
2527.00,100.64
2524.00,100.69
2521.00,100.69
2518.00,100.64
2515.00,100.68
2512.00,100.75
2509.00,100.75
2506.00,100.67
2503.00,100.64
2500.00,100.63
2497.00,100.68
2494.00,100.73
2491.00,100.79
2488.00,100.75
2485.00,100.70
2482.00,100.68
2479.00,100.71
2476.00,100.74
2473.00,100.69
2470.00,100.66
2467.00,100.65
2464.00,100.71
2461.00,100.69
2458.00,100.62
2455.00,100.61
2452.00,100.70
2449.00,100.67
2446.00,100.68
2443.00,100.70
2440.00,100.70
2437.00,100.76
2434.00,100.73
2431.00,100.72
2428.00,100.67
2425.00,100.67
2422.00,100.71
2419.00,100.69
2416.00,100.73
2413.00,100.75
2410.00,100.78
2407.00,100.79
2404.00,100.79
2401.00,100.77
2398.00,100.77
2395.00,100.84
2392.00,100.80
2389.00,100.79
2386.00,100.81
2383.00,100.89
2380.00,100.92
2377.00,100.99
2374.00,101.13
2371.00,100.93
2368.00,100.98
2365.00,101.00
2362.00,101.00
2359.00,100.95
2356.00,101.00
2353.00,100.97
2350.00,100.98
2347.00,101.17
2344.00,100.97
2341.00,100.86
2338.00,100.94
2335.00,100.83
2332.00,100.81
2329.00,100.82
2326.00,100.62
2323.00,100.50
2320.00,100.55
2317.00,100.52
2314.00,100.57
2311.00,100.60
2308.00,100.55
2305.00,100.54
2302.00,100.57
2299.00,100.50
2296.00,100.40
2293.00,100.33
2290.00,100.27
2287.00,100.24
2284.00,100.21
2281.00,100.27
2278.00,100.15
2275.00,100.16
2272.00,100.31
2269.00,100.24
2266.00,100.25
2263.00,100.26
2260.00,100.13
2257.00,100.15
2254.00,100.25
2251.00,100.08
2248.00,100.07
2245.00,100.10
2242.00,100.09
2239.00,100.15
2236.00,100.11
2233.00,100.08
2230.00,100.10
2227.00,99.95
2224.00,99.93
2221.00,99.94
2218.00,100.02
2215.00,99.87
2212.00,99.83
2209.00,99.86
2206.00,99.91
2203.00,99.86
2200.00,99.73
2197.00,99.79
2194.00,99.79
2191.00,99.83
2188.00,99.73
2185.00,99.71
2182.00,99.84
2179.00,99.85
2176.00,99.80
2173.00,99.76
2170.00,99.62
2167.00,99.33
2164.00,99.13
2161.00,99.33
2158.00,100.04
2155.00,100.07
2152.00,99.99
2149.00,100.04
2146.00,100.09
2143.00,100.14
2140.00,100.16
2137.00,100.30
2134.00,100.47
2131.00,100.35
2128.00,100.38
2125.00,100.39
2122.00,100.31
2119.00,100.19
2116.00,100.15
2113.00,100.07
2110.00,100.14
2107.00,100.08
2104.00,100.11
2101.00,100.09
2098.00,100.13
2095.00,100.21
2092.00,100.10
2089.00,100.10
2086.00,100.04
2083.00,100.13
2080.00,100.11
2077.00,100.03
2074.00,99.97
2071.00,99.91
2068.00,99.86
2065.00,100.01
2062.00,99.98
2059.00,99.95
2056.00,100.08
2053.00,99.93
2050.00,99.68
2047.00,99.85
2044.00,99.72
2041.00,99.59
2038.00,99.70
2035.00,99.86
2032.00,99.74
2029.00,99.71
2026.00,99.63
2023.00,99.74
2020.00,99.83
2017.00,99.91
2014.00,99.71
2011.00,99.74
2008.00,100.05
2005.00,99.91
2002.00,99.86
1999.00,99.95
1996.00,99.91
1993.00,99.49
1990.00,99.87
1987.00,99.88
1984.00,99.58
1981.00,99.42
1978.00,99.84
1975.00,99.97
1972.00,99.87
1969.00,99.88
1966.00,99.88
1963.00,100.11
1960.00,100.06
1957.00,99.96
1954.00,100.05
1951.00,100.12
1948.00,100.11
1945.00,100.12
1942.00,100.17
1939.00,100.20
1936.00,100.16
1933.00,100.23
1930.00,100.21
1927.00,100.25
1924.00,100.25
1921.00,100.24
1918.00,100.23
1915.00,100.27
1912.00,100.26
1909.00,100.18
1906.00,100.12
1903.00,100.22
1900.00,100.26
1897.00,100.24
1894.00,100.30
1891.00,100.32
1888.00,100.32
1885.00,100.37
1882.00,100.33
1879.00,100.29
1876.00,100.26
1873.00,100.26
1870.00,100.31
1867.00,100.24
1864.00,100.29
1861.00,100.31
1858.00,100.33
1855.00,100.32
1852.00,100.30
1849.00,100.32
1846.00,100.31
1843.00,100.33
1840.00,100.34
1837.00,100.29
1834.00,100.28
1831.00,100.26
1828.00,100.26
1825.00,100.30
1822.00,100.34
1819.00,100.36
1816.00,100.39
1813.00,100.31
1810.00,100.28
1807.00,100.32
1804.00,100.29
1801.00,100.29
1798.00,100.29
1795.00,100.29
1792.00,100.25
1789.00,100.22
1786.00,100.20
1783.00,100.20
1780.00,100.20
1777.00,100.15
1774.00,100.22
1771.00,100.22
1768.00,100.15
1765.00,100.12
1762.00,100.05
1759.00,99.97
1756.00,99.99
1753.00,99.93
1750.00,99.87
1747.00,99.82
1744.00,99.77
1741.00,99.71
1738.00,99.71
1735.00,99.75
1732.00,99.63
1729.00,99.60
1726.00,99.60
1723.00,99.58
1720.00,99.56
1717.00,99.55
1714.00,99.52
1711.00,99.46
1708.00,99.42
1705.00,99.40
1702.00,99.35
1699.00,99.29
1696.00,99.10
1693.00,98.71
1690.00,98.25
1687.00,97.74
1684.00,96.64
1681.00,95.54
1678.00,94.49
1675.00,93.22
1672.00,91.97
1669.00,90.46
1666.00,88.92
1663.00,87.33
1660.00,85.75
1657.00,84.31
1654.00,82.87
1651.00,80.57
1648.00,78.71
1645.00,76.35
1642.00,74.47
1639.00,72.95
1636.00,72.28
1633.00,72.52
1630.00,73.16
1627.00,74.23
1624.00,75.59
1621.00,77.51
1618.00,79.69
1615.00,82.44
1612.00,84.49
1609.00,86.54
1606.00,88.34
1603.00,89.81
1600.00,90.97
1597.00,91.75
1594.00,92.22
1591.00,92.41
1588.00,92.39
1585.00,92.10
1582.00,91.49
1579.00,90.77
1576.00,89.61
1573.00,88.19
1570.00,86.82
1567.00,85.33
1564.00,83.90
1561.00,82.86
1558.00,81.13
1555.00,79.90
1552.00,78.67
1549.00,77.44
1546.00,76.37
1543.00,75.55
1540.00,75.08
1537.00,75.02
1534.00,75.45
1531.00,76.36
1528.00,77.32
1525.00,78.67
1522.00,80.12
1519.00,81.62
1516.00,83.07
1513.00,84.41
1510.00,85.58
1507.00,86.99
1504.00,88.32
1501.00,89.20
1498.00,90.16
1495.00,91.04
1492.00,91.57
1489.00,91.91
1486.00,91.86
1483.00,91.17
1480.00,90.12
1477.00,89.36
1474.00,89.08
1471.00,88.88
1468.00,88.03
1465.00,86.80
1462.00,86.45
1459.00,87.03
1456.00,87.79
1453.00,88.13
1450.00,88.50
1447.00,88.65
1444.00,88.53
1441.00,88.29
1438.00,88.00
1435.00,87.94
1432.00,88.27
1429.00,88.88
1426.00,89.23
1423.00,89.09
1420.00,88.75
1417.00,88.86
1414.00,89.60
1411.00,90.77
1408.00,91.92
1405.00,92.73
1402.00,93.32
1399.00,93.54
1396.00,93.57
1393.00,93.37
1390.00,92.96
1387.00,92.39
1384.00,91.77
1381.00,91.03
1378.00,90.36
1375.00,89.85
1372.00,89.60
1369.00,89.66
1366.00,89.88
1363.00,90.14
1360.00,90.53
1357.00,90.86
1354.00,91.25
1351.00,91.64
1348.00,91.92
1345.00,92.14
1342.00,92.31
1339.00,92.46
1336.00,92.57
1333.00,92.66
1330.00,92.84
1327.00,93.00
1324.00,93.00
1321.00,92.92
1318.00,92.72
1315.00,92.52
1312.00,92.35
1309.00,92.16
1306.00,91.97
1303.00,91.83
1300.00,91.78
1297.00,91.77
1294.00,91.69
1291.00,91.54
1288.00,91.35
1285.00,90.97
1282.00,90.57
1279.00,90.40
1276.00,90.42
1273.00,90.34
1270.00,89.89
1267.00,89.01
1264.00,88.19
1261.00,87.86
1258.00,87.96
1255.00,88.40
1252.00,88.91
1249.00,89.31
1246.00,89.52
1243.00,89.50
1240.00,89.44
1237.00,89.45
1234.00,89.83
1231.00,90.68
1228.00,91.71
1225.00,92.60
1222.00,92.96
1219.00,92.71
1216.00,92.21
1213.00,91.73
1210.00,91.45
1207.00,91.23
1204.00,90.71
1201.00,90.26
1198.00,90.58
1195.00,91.47
1192.00,92.31
1189.00,93.00
1186.00,93.52
1183.00,93.64
1180.00,93.28
1177.00,92.28
1174.00,91.04
1171.00,90.23
1168.00,90.30
1165.00,91.17
1162.00,92.37
1159.00,93.43
1156.00,94.21
1153.00,94.88
1150.00,95.37
1147.00,95.74
1144.00,95.98
1141.00,96.19
1138.00,96.29
1135.00,96.34
1132.00,96.19
1129.00,95.75
1126.00,95.04
1123.00,94.26
1120.00,93.80
1117.00,93.69
1114.00,93.77
1111.00,94.10
1108.00,94.37
1105.00,94.77
1102.00,95.22
1099.00,95.40
1096.00,95.54
1093.00,95.65
1090.00,95.55
1087.00,95.66
1084.00,95.56
1081.00,95.49
1078.00,95.32
1075.00,95.15
1072.00,95.19
1069.00,95.28
1066.00,95.49
1063.00,95.62
1060.00,95.94
1057.00,96.28
1054.00,96.49
1051.00,96.65
1048.00,96.87
1045.00,96.91
1042.00,96.90
1039.00,96.99
1036.00,96.96
1033.00,96.93
1030.00,96.87
1027.00,96.84
1024.00,96.97
1021.00,97.08
1018.00,97.08
1015.00,97.10
1012.00,97.23
1009.00,97.15
1006.00,97.09
1003.00,97.21
1000.00,97.20
997.00,97.02
994.00,96.97
991.00,96.87
988.00,96.57
985.00,96.39
982.00,96.39
979.00,96.23
976.00,96.10
973.00,96.13
970.00,96.10
967.00,96.10
964.00,96.16
961.00,96.11
958.00,96.17
955.00,96.31
952.00,96.41
949.00,96.60
946.00,96.89
943.00,97.05
940.00,97.12
937.00,97.12
934.00,97.00
931.00,96.78
928.00,96.88
925.00,96.99
922.00,97.04
919.00,97.19
916.00,97.31
913.00,97.30
910.00,97.36
907.00,97.50
904.00,97.53
901.00,97.59
898.00,97.63
895.00,97.69
892.00,97.64
889.00,97.67
886.00,97.70
883.00,97.74
880.00,97.84
877.00,97.81
874.00,97.82
871.00,97.87
868.00,97.88
865.00,97.87
862.00,97.87
859.00,97.85
856.00,97.87
853.00,97.82
850.00,97.72
847.00,97.52
844.00,97.48
841.00,97.40
838.00,97.14
835.00,97.01
832.00,96.95
829.00,97.01
826.00,97.13
823.00,97.06
820.00,97.21
817.00,97.08
814.00,96.89
811.00,96.80
808.00,96.68
805.00,96.61
802.00,96.57
799.00,96.29
796.00,96.23
793.00,95.98
790.00,95.75
787.00,95.54
784.00,95.27
781.00,95.19
778.00,94.98
775.00,94.85
772.00,94.61
769.00,94.37
766.00,94.37
763.00,94.04
760.00,93.81
757.00,93.63
754.00,93.27
751.00,92.92
748.00,92.59
745.00,92.22
742.00,91.64
739.00,91.13
736.00,90.19
733.00,89.05
730.00,88.40
727.00,88.05
724.00,88.32
721.00,88.37
718.00,88.41
715.00,88.32
712.00,88.05
709.00,88.08
706.00,87.68
703.00,87.58
700.00,87.32
697.00,86.69
694.00,86.66
691.00,86.13
688.00,86.20
685.00,86.13
682.00,85.93
679.00,86.24
676.00,86.23
673.00,86.30
670.00,86.55
667.00,86.58
664.00,87.24
661.00,87.61
658.00,87.68
655.00,88.23
652.00,88.24
649.00,88.22
646.00,88.82
643.00,89.12
640.00,89.20
637.00,89.64
634.00,88.68
631.00,89.10
628.00,89.57
625.00,89.08
622.00,89.66
619.00,88.66
616.00,89.34
613.00,89.40
610.00,88.31
607.00,89.58
604.00,88.81
601.00,88.06
598.00,88.69
595.00,86.78
592.00,88.42
589.00,88.97
586.00,86.81
583.00,87.81
580.00,85.87
577.00,84.89
574.00,86.98
571.00,84.75
568.00,86.56
565.00,85.83
562.00,85.92
559.00,88.59
556.00,87.75
553.00,87.29
550.00,88.58