File: raw_csv_data/Nylon 10.3.csv
Created as New Dataset,93 Du Pont
cm-1,%T
4000.00,98.71
3997.00,98.72
3994.00,98.70
3991.00,98.72
3988.00,98.72
3985.00,98.69
3982.00,98.68
3979.00,98.71
3976.00,98.75
3973.00,98.75
3970.00,98.73
3967.00,98.73
3964.00,98.71
3961.00,98.68
3958.00,98.70
3955.00,98.71
3952.00,98.75
3949.00,98.79
3946.00,98.77
3943.00,98.74
3940.00,98.71
3937.00,98.75
3934.00,98.79
3931.00,98.74
3928.00,98.73
3925.00,98.74
3922.00,98.81
3919.00,98.76
3916.00,98.75
3913.00,98.74
3910.00,98.74
3907.00,98.76
3904.00,98.75
3901.00,98.77
3898.00,98.78
3895.00,98.80
3892.00,98.76
3889.00,98.80
3886.00,98.75
3883.00,98.74
3880.00,98.73
3877.00,98.74
3874.00,98.79
3871.00,98.81
3868.00,98.82
3865.00,98.82
3862.00,98.82
3859.00,98.80
3856.00,98.80
3853.00,98.78
3850.00,98.81
3847.00,98.74
3844.00,98.74
3841.00,98.77
3838.00,98.74
3835.00,98.78
3832.00,98.77
3829.00,98.75
3826.00,98.71
3823.00,98.73
3820.00,98.79
3817.00,98.78
3814.00,98.63
3811.00,98.61
3808.00,98.63
3805.00,98.67
3802.00,98.66
3799.00,98.71
3796.00,98.68
3793.00,98.67
3790.00,98.61
3787.00,98.55
3784.00,98.56
3781.00,98.54
3778.00,98.54
3775.00,98.54
3772.00,98.59
3769.00,98.58
3766.00,98.53
3763.00,98.49
3760.00,98.51
3757.00,98.57
3754.00,98.61
3751.00,98.62
3748.00,98.61
3745.00,98.57
3742.00,98.56
3739.00,98.55
3736.00,98.62
3733.00,98.65
3730.00,98.57
3727.00,98.54
3724.00,98.47
3721.00,98.43
3718.00,98.40
3715.00,98.45
3712.00,98.48
3709.00,98.43
3706.00,98.33
3703.00,98.33
3700.00,98.42
3697.00,98.36
3694.00,98.30
3691.00,98.35
3688.00,98.38
3685.00,98.33
3682.00,98.24
3679.00,98.25
3676.00,98.26
3673.00,98.39
3670.00,98.35
3667.00,98.26
3664.00,98.17
3661.00,98.10
3658.00,98.10
3655.00,98.12
3652.00,98.23
3649.00,98.25
3646.00,98.23
3643.00,98.07
3640.00,98.02
3637.00,98.05
3634.00,98.07
3631.00,98.11
3628.00,98.02
3625.00,97.95
3622.00,97.93
3619.00,97.87
3616.00,97.93
3613.00,97.90
3610.00,97.84
3607.00,97.79
3604.00,97.77
3601.00,97.73
3598.00,97.76
3595.00,97.74
3592.00,97.76
3589.00,97.66
3586.00,97.58
3583.00,97.58
3580.00,97.55
3577.00,97.50
3574.00,97.41
3571.00,97.35
3568.00,97.34
3565.00,97.28
3562.00,97.23
3559.00,97.23
3556.00,97.17
3553.00,97.15
3550.00,97.09
3547.00,97.00
3544.00,96.90
3541.00,96.88
3538.00,96.77
3535.00,96.76
3532.00,96.79
3529.00,96.70
3526.00,96.60
3523.00,96.49
3520.00,96.43
3517.00,96.45
3514.00,96.42
3511.00,96.36
3508.00,96.27
3505.00,96.20
3502.00,96.17
3499.00,96.13
3496.00,96.09
3493.00,96.07
3490.00,96.03
3487.00,96.04
3484.00,95.99
3481.00,96.03
3478.00,96.01
3475.00,95.93
3472.00,95.88
3469.00,95.85
3466.00,95.86
3463.00,95.87
3460.00,95.82
3457.00,95.83
3454.00,95.83
3451.00,95.72
3448.00,95.72
3445.00,95.73
3442.00,95.68
3439.00,95.62
3436.00,95.60
3433.00,95.61
3430.00,95.62
3427.00,95.61
3424.00,95.63
3421.00,95.55
3418.00,95.50
3415.00,95.50
3412.00,95.44
3409.00,95.36
3406.00,95.39
3403.00,95.32
3400.00,95.23
3397.00,95.25
3394.00,95.15
3391.00,95.10
3388.00,95.02
3385.00,94.99
3382.00,94.90
3379.00,94.76
3376.00,94.64
3373.00,94.46
3370.00,94.29
3367.00,94.08
3364.00,93.91
3361.00,93.74
3358.00,93.47
3355.00,93.20
3352.00,92.93
3349.00,92.50
3346.00,92.04
3343.00,91.59
3340.00,91.03
3337.00,90.50
3334.00,89.86
3331.00,89.06
3328.00,88.15
3325.00,87.19
3322.00,86.09
3319.00,84.90
3316.00,83.56
3313.00,82.15
3310.00,80.84
3307.00,79.66
3304.00,78.81
3301.00,78.21
3298.00,78.03
3295.00,78.15
3292.00,78.61
3289.00,79.24
3286.00,79.97
3283.00,80.73
3280.00,81.47
3277.00,82.22
3274.00,82.94
3271.00,83.54
3268.00,84.11
3265.00,84.71
3262.00,85.34
3259.00,85.98
3256.00,86.59
3253.00,87.19
3250.00,87.77
3247.00,88.32
3244.00,88.85
3241.00,89.35
3238.00,89.75
3235.00,90.15
3232.00,90.54
3229.00,90.82
3226.00,91.14
3223.00,91.42
3220.00,91.59
3217.00,91.72
3214.00,91.89
3211.00,92.06
3208.00,92.20
3205.00,92.26
3202.00,92.42
3199.00,92.54
3196.00,92.67
3193.00,92.81
3190.00,92.97
3187.00,93.15
3184.00,93.29
3181.00,93.42
3178.00,93.65
3175.00,93.83
3172.00,94.02
3169.00,94.17
3166.00,94.30
3163.00,94.51
3160.00,94.63
3157.00,94.79
3154.00,94.89
3151.00,94.96
3148.00,95.00
3145.00,95.01
3142.00,95.07
3139.00,95.13
3136.00,95.12
3133.00,95.14
3130.00,95.11
3127.00,95.08
3124.00,95.01
3121.00,94.95
3118.00,94.85
3115.00,94.75
3112.00,94.57
3109.00,94.39
3106.00,94.18
3103.00,94.02
3100.00,93.84
3097.00,93.64
3094.00,93.47
3091.00,93.31
3088.00,93.20
3085.00,93.12
3082.00,93.08
3079.00,93.07
3076.00,93.06
3073.00,93.06
3070.00,93.13
3067.00,93.27
3064.00,93.33
3061.00,93.45
3058.00,93.67
3055.00,93.93
3052.00,94.12
3049.00,94.38
3046.00,94.71
3043.00,94.97
3040.00,95.16
3037.00,95.36
3034.00,95.52
3031.00,95.65
3028.00,95.74
3025.00,95.84
3022.00,95.88
3019.00,95.97
3016.00,96.02
3013.00,96.09
3010.00,96.12
3007.00,96.13
3004.00,96.12
3001.00,96.12
2998.00,96.08
2995.00,96.11
2992.00,96.04
2989.00,95.91
2986.00,95.74
2983.00,95.47
2980.00,95.18
2977.00,94.76
2974.00,94.22
2971.00,93.64
2968.00,92.94
2965.00,92.18
2962.00,91.45
2959.00,90.56
2956.00,89.44
2953.00,88.08
2950.00,86.48
2947.00,84.85
2944.00,83.39
2941.00,82.01
2938.00,80.69
2935.00,79.75
2932.00,79.48
2929.00,79.87
2926.00,80.71
2923.00,81.74
2920.00,82.81
2917.00,83.83
2914.00,84.68
2911.00,85.42
2908.00,86.12
2905.00,86.87
2902.00,87.70
2899.00,88.55
2896.00,89.25
2893.00,89.82
2890.00,90.15
2887.00,90.16
2884.00,89.83
2881.00,89.19
2878.00,88.38
2875.00,87.53
2872.00,86.87
2869.00,86.33
2866.00,85.70
2863.00,85.01
2860.00,84.63
2857.00,84.94
2854.00,86.01
2851.00,87.57
2848.00,89.27
2845.00,90.80
2842.00,92.00
2839.00,92.84
2836.00,93.39
2833.00,93.74
2830.00,93.99
2827.00,94.13
2824.00,94.27
2821.00,94.45
2818.00,94.62
2815.00,94.78
2812.00,94.92
2809.00,95.03
2806.00,95.14
2803.00,95.24
2800.00,95.35
2797.00,95.40
2794.00,95.49
2791.00,95.56
2788.00,95.63
2785.00,95.67
2782.00,95.69
2779.00,95.76
2776.00,95.83
2773.00,95.82
2770.00,95.89
2767.00,95.94
2764.00,95.96
2761.00,95.97
2758.00,95.98
2755.00,96.01
2752.00,96.03
2749.00,96.04
2746.00,96.06
2743.00,96.11
2740.00,96.15
2737.00,96.18
2734.00,96.19
2731.00,96.23
2728.00,96.26
2725.00,96.33
2722.00,96.38
2719.00,96.41
2716.00,96.45
2713.00,96.48
2710.00,96.46
2707.00,96.47
2704.00,96.46
2701.00,96.51
2698.00,96.52
2695.00,96.47
2692.00,96.50
2689.00,96.51
2686.00,96.52
2683.00,96.57
2680.00,96.57
2677.00,96.56
2674.00,96.60
2671.00,96.63
2668.00,96.66
2665.00,96.63
2662.00,96.59
2659.00,96.57
2656.00,96.55
2653.00,96.53
2650.00,96.52
2647.00,96.50
2644.00,96.47
2641.00,96.48
2638.00,96.48
2635.00,96.42
2632.00,96.38
2629.00,96.38
2626.00,96.38
2623.00,96.36
2620.00,96.32
2617.00,96.29
2614.00,96.25
2611.00,96.25
2608.00,96.22
2605.00,96.16
2602.00,96.15
2599.00,96.14
2596.00,96.11
2593.00,96.08
2590.00,96.09
2587.00,96.06
2584.00,96.08
2581.00,96.10
2578.00,96.04
2575.00,96.04
2572.00,96.04
2569.00,96.03
2566.00,96.02
2563.00,96.04
2560.00,96.03
2557.00,96.03
2554.00,96.06
2551.00,96.08
2548.00,96.05
2545.00,96.02
2542.00,96.05
2539.00,96.07
2536.00,96.08
2533.00,96.11
2530.00,96.09
2527.00,96.10
2524.00,96.08
2521.00,96.12
2518.00,96.10
2515.00,96.11
2512.00,96.10
2509.00,96.16
2506.00,96.21
2503.00,96.13
2500.00,96.10
2497.00,96.13
2494.00,96.12
2491.00,96.13
2488.00,96.16
2485.00,96.12
2482.00,96.13
2479.00,96.13
2476.00,96.12
2473.00,96.16
2470.00,96.21
2467.00,96.17
2464.00,96.13
2461.00,96.15
2458.00,96.15
2455.00,96.20
2452.00,96.18
2449.00,96.13
2446.00,96.18
2443.00,96.17
2440.00,96.20
2437.00,96.28
2434.00,96.26
2431.00,96.25
2428.00,96.29
2425.00,96.30
2422.00,96.23
2419.00,96.29
2416.00,96.35
2413.00,96.31
2410.00,96.30
2407.00,96.32
2404.00,96.41
2401.00,96.43
2398.00,96.41
2395.00,96.48
2392.00,96.49
2389.00,96.53
2386.00,96.53
2383.00,96.61
2380.00,96.75
2377.00,96.77
2374.00,96.75
2371.00,96.76
2368.00,96.82
2365.00,96.80
2362.00,96.74
2359.00,96.78
2356.00,96.88
2353.00,96.84
2350.00,96.86
2347.00,96.83
2344.00,96.83
2341.00,96.80
2338.00,96.70
2335.00,96.81
2332.00,96.93
2329.00,96.81
2326.00,96.68
2323.00,96.52
2320.00,96.52
2317.00,96.48
2314.00,96.34
2311.00,96.33
2308.00,96.26
2305.00,96.26
2302.00,96.23
2299.00,96.18
2296.00,96.04
2293.00,95.99
2290.00,95.93
2287.00,95.77
2284.00,95.70
2281.00,95.65
2278.00,95.54
2275.00,95.56
2272.00,95.50
2269.00,95.48
2266.00,95.45
2263.00,95.43
2260.00,95.27
2257.00,95.24
2254.00,95.26
2251.00,95.23
2248.00,95.17
2245.00,95.07
2242.00,95.04
2239.00,94.94
2236.00,94.97
2233.00,94.82
2230.00,94.87
2227.00,94.79
2224.00,94.77
2221.00,94.72
2218.00,94.75
2215.00,94.61
2212.00,94.51
2209.00,94.23
2206.00,94.27
2203.00,94.44
2200.00,94.34
2197.00,94.27
2194.00,94.27
2191.00,94.02
2188.00,93.87
2185.00,93.79
2182.00,93.88
2179.00,93.96
2176.00,93.89
2173.00,93.87
2170.00,93.65
2167.00,93.46
2164.00,93.20
2161.00,92.91
2158.00,93.49
2155.00,94.01
2152.00,94.25
2149.00,94.29
2146.00,94.42
2143.00,94.69
2140.00,94.82
2137.00,94.87
2134.00,95.09
2131.00,95.26
2128.00,95.17
2125.00,95.22
2122.00,95.26
2119.00,95.30
2116.00,95.35
2113.00,95.33
2110.00,95.23
2107.00,95.24
2104.00,95.32
2101.00,95.25
2098.00,95.15
2095.00,95.30
2092.00,95.36
2089.00,95.32
2086.00,95.23
2083.00,95.18
2080.00,95.23
2077.00,95.15
2074.00,95.03
2071.00,94.99
2068.00,94.94
2065.00,94.98
2062.00,94.86
2059.00,94.83
2056.00,94.88
2053.00,94.63
2050.00,94.32
2047.00,94.28
2044.00,94.25
2041.00,94.17
2038.00,93.95
2035.00,93.85
2032.00,93.98
2029.00,93.97
2026.00,93.94
2023.00,93.92
2020.00,94.02
2017.00,94.22
2014.00,94.20
2011.00,94.20
2008.00,94.24
2005.00,94.40
2002.00,94.50
1999.00,94.53
1996.00,94.53
1993.00,94.47
1990.00,94.52
1987.00,94.39
1984.00,94.22
1981.00,94.03
1978.00,93.97
1975.00,94.18
1972.00,94.29
1969.00,94.33
1966.00,94.52
1963.00,94.77
1960.00,94.84
1957.00,94.98
1954.00,95.06
1951.00,95.15
1948.00,95.28
1945.00,95.34
1942.00,95.46
1939.00,95.51
1936.00,95.55
1933.00,95.62
1930.00,95.73
1927.00,95.81
1924.00,95.79
1921.00,95.90
1918.00,95.84
1915.00,95.89
1912.00,95.97
1909.00,96.06
1906.00,96.04
1903.00,96.09
1900.00,96.15
1897.00,96.17
1894.00,96.22
1891.00,96.20
1888.00,96.26
1885.00,96.30
1882.00,96.28
1879.00,96.35
1876.00,96.33
1873.00,96.37
1870.00,96.46
1867.00,96.48
1864.00,96.44
1861.00,96.51
1858.00,96.55
1855.00,96.54
1852.00,96.54
1849.00,96.56
1846.00,96.66
1843.00,96.65
1840.00,96.68
1837.00,96.74
1834.00,96.79
1831.00,96.75
1828.00,96.74
1825.00,96.75
1822.00,96.77
1819.00,96.84
1816.00,96.89
1813.00,96.90
1810.00,96.91
1807.00,96.91
1804.00,96.93
1801.00,96.94
1798.00,96.92
1795.00,96.90
1792.00,96.97
1789.00,96.97
1786.00,96.96
1783.00,97.01
1780.00,97.02
1777.00,96.99
1774.00,96.98
1771.00,96.96
1768.00,96.96
1765.00,96.97
1762.00,96.92
1759.00,96.85
1756.00,96.79
1753.00,96.75
1750.00,96.70
1747.00,96.58
1744.00,96.46
1741.00,96.34
1738.00,96.24
1735.00,96.21
1732.00,96.21
1729.00,96.26
1726.00,96.28
1723.00,96.31
1720.00,96.32
1717.00,96.31
1714.00,96.28
1711.00,96.26
1708.00,96.30
1705.00,96.26
1702.00,96.24
1699.00,96.25
1696.00,96.23
1693.00,96.08
1690.00,95.86
1687.00,95.41
1684.00,94.48
1681.00,93.45
1678.00,92.36
1675.00,90.85
1672.00,89.45
1669.00,87.47
1666.00,85.39
1663.00,82.86
1660.00,80.16
1657.00,77.76
1654.00,74.91
1651.00,70.85
1648.00,68.11
1645.00,63.96
1642.00,60.76
1639.00,57.66
1636.00,55.09
1633.00,54.01
1630.00,55.00
1627.00,57.17
1624.00,59.70
1621.00,62.78
1618.00,65.88
1615.00,69.96
1612.00,72.87
1609.00,75.60
1606.00,78.01
1603.00,80.28
1600.00,82.15
1597.00,83.51
1594.00,84.48
1591.00,85.01
1588.00,85.19
1585.00,85.07
1582.00,84.59
1579.00,83.82
1576.00,82.44
1573.00,81.01
1570.00,79.29
1567.00,77.31
1564.00,75.38
1561.00,73.79
1558.00,70.93
1555.00,69.25
1552.00,67.33
1549.00,65.28
1546.00,63.23
1543.00,60.90
1540.00,58.11
1537.00,56.01
1534.00,54.88
1531.00,54.73
1528.00,55.98
1525.00,58.36
1522.00,61.24
1519.00,64.47
1516.00,67.42
1513.00,69.97
1510.00,72.24
1507.00,74.55
1504.00,76.66
1501.00,78.07
1498.00,79.53
1495.00,80.94
1492.00,81.87
1489.00,82.75
1486.00,82.92
1483.00,82.07
1480.00,79.82
1477.00,77.35
1474.00,76.30
1471.00,77.15
1468.00,76.38
1465.00,74.45
1462.00,74.68
1459.00,76.06
1456.00,77.52
1453.00,78.36
1450.00,79.11
1447.00,79.43
1444.00,79.27
1441.00,78.93
1438.00,78.67
1435.00,78.71
1432.00,79.21
1429.00,79.92
1426.00,80.08
1423.00,79.46
1420.00,77.94
1417.00,76.27
1414.00,77.82
1411.00,80.77
1408.00,82.88
1405.00,84.11
1402.00,84.74
1399.00,84.95
1396.00,84.86
1393.00,84.33
1390.00,83.70
1387.00,83.01
1384.00,82.42
1381.00,81.71
1378.00,80.68
1375.00,79.38
1372.00,78.41
1369.00,78.33
1366.00,78.74
1363.00,79.39
1360.00,80.07
1357.00,80.71
1354.00,81.40
1351.00,82.08
1348.00,82.71
1345.00,83.23
1342.00,83.65
1339.00,83.96
1336.00,84.26
1333.00,84.47
1330.00,84.52
1327.00,84.60
1324.00,84.82
1321.00,84.96
1318.00,84.96
1315.00,84.78
1312.00,84.41
1309.00,84.00
1306.00,83.61
1303.00,83.33
1300.00,83.23
1297.00,83.11
1294.00,82.83
1291.00,82.40
1288.00,81.69
1285.00,80.43
1282.00,78.66
1279.00,76.48
1276.00,74.62
1273.00,73.79
1270.00,73.95
1267.00,74.71
1264.00,75.73
1261.00,76.74
1258.00,77.61
1255.00,78.28
1252.00,78.83
1249.00,79.31
1246.00,79.74
1243.00,80.14
1240.00,80.42
1237.00,80.70
1234.00,81.17
1231.00,81.79
1228.00,82.32
1225.00,82.46
1222.00,82.84
1219.00,83.52
1216.00,83.86
1213.00,83.83
1210.00,83.47
1207.00,82.42
1204.00,80.36
1201.00,77.58
1198.00,75.81
1195.00,76.88
1192.00,79.16
1189.00,80.74
1186.00,81.09
1183.00,80.51
1180.00,79.98
1177.00,80.65
1174.00,82.27
1171.00,83.88
1168.00,85.03
1165.00,85.84
1162.00,86.27
1159.00,86.28
1156.00,85.86
1153.00,85.03
1150.00,84.19
1147.00,83.63
1144.00,83.36
1141.00,83.20
1138.00,83.34
1135.00,84.45
1132.00,85.67
1129.00,86.49
1126.00,86.94
1123.00,87.24
1120.00,87.52
1117.00,87.69
1114.00,87.80
1111.00,87.84
1108.00,87.83
1105.00,87.86
1102.00,87.95
1099.00,88.01
1096.00,88.05
1093.00,88.12
1090.00,88.28
1087.00,88.39
1084.00,88.70
1081.00,88.88
1078.00,88.93
1075.00,89.01
1072.00,88.91
1069.00,88.59
1066.00,88.33
1063.00,88.25
1060.00,88.29
1057.00,88.45
1054.00,88.56
1051.00,88.52
1048.00,88.45
1045.00,88.30
1042.00,88.24
1039.00,88.30
1036.00,88.52
1033.00,88.80
1030.00,89.01
1027.00,89.16
1024.00,89.32
1021.00,89.43
1018.00,89.42
1015.00,89.49
1012.00,89.48
1009.00,89.63
1006.00,89.77
1003.00,89.91
1000.00,90.02
997.00,90.11
994.00,90.25
991.00,90.40
988.00,90.43
985.00,90.61
982.00,90.86
979.00,91.05
976.00,91.09
973.00,91.11
970.00,91.14
967.00,91.14
964.00,91.11
961.00,90.93
958.00,90.78
955.00,90.66
952.00,90.43
949.00,90.10
946.00,89.64
943.00,88.78
940.00,87.22
937.00,85.15
934.00,84.25
931.00,85.21
928.00,86.58
925.00,87.57
922.00,88.26
919.00,88.75
916.00,89.13
913.00,89.41
910.00,89.28
907.00,88.87
904.00,88.93
901.00,89.64
898.00,90.26
895.00,90.59
892.00,90.75
889.00,90.89
886.00,90.97
883.00,91.00
880.00,90.98
877.00,91.03
874.00,91.10
871.00,91.27
868.00,91.31
865.00,91.32
862.00,91.24
859.00,91.26
856.00,91.19
853.00,91.04
850.00,91.08
847.00,91.03
844.00,90.98
841.00,90.95
838.00,90.84
835.00,90.74
832.00,90.67
829.00,90.66
826.00,90.61
823.00,90.47
820.00,90.35
817.00,90.08
814.00,89.97
811.00,89.80
808.00,89.57
805.00,89.41
802.00,88.98
799.00,88.64
796.00,88.47
793.00,88.37
790.00,88.24
787.00,88.01
784.00,87.88
781.00,87.65
778.00,87.35
775.00,87.05
772.00,86.73
769.00,86.37
766.00,85.94
763.00,85.49
760.00,85.18
757.00,84.69
754.00,84.33
751.00,83.97
748.00,83.74
745.00,83.47
742.00,82.83
739.00,81.76
736.00,79.99
733.00,78.00
730.00,76.53
727.00,75.90
724.00,75.87
721.00,76.10
718.00,76.14
715.00,75.86
712.00,75.54
709.00,75.14
706.00,74.77
703.00,74.09
700.00,73.33
697.00,72.33
694.00,71.18
691.00,70.18
688.00,69.59
685.00,69.17
682.00,69.01
679.00,69.05
676.00,69.43
673.00,70.08
670.00,70.52
667.00,71.52
664.00,71.97
661.00,72.76
658.00,73.37
655.00,73.80
652.00,74.48
649.00,75.00
646.00,75.56
643.00,75.80
640.00,76.13
637.00,76.45
634.00,76.59
631.00,76.25
628.00,76.73
625.00,77.22
622.00,77.06
619.00,76.84
616.00,77.11
613.00,77.06
610.00,76.73
607.00,76.05
604.00,75.43
601.00,75.57
598.00,74.93
595.00,73.76
592.00,73.04
589.00,71.95
586.00,69.51
583.00,68.91
580.00,67.04
577.00,65.95
574.00,67.07
571.00,67.58
568.00,68.94
565.00,70.33
562.00,70.95
559.00,69.88
556.00,70.38
553.00,73.46
550.00,73.28