File: raw_csv_data/Nylon - 1.csv
Created as New Dataset,90. Du Pont
cm-1,%T
4000.00,100.14
3997.00,100.06
3994.00,100.02
3991.00,100.02
3988.00,100.01
3985.00,100.03
3982.00,100.04
3979.00,100.04
3976.00,100.03
3973.00,100.07
3970.00,100.07
3967.00,100.05
3964.00,100.07
3961.00,100.07
3958.00,100.06
3955.00,100.04
3952.00,100.05
3949.00,100.08
3946.00,100.09
3943.00,100.10
3940.00,100.14
3937.00,100.13
3934.00,100.10
3931.00,100.08
3928.00,100.14
3925.00,100.08
3922.00,100.10
3919.00,100.13
3916.00,100.08
3913.00,100.07
3910.00,100.06
3907.00,100.10
3904.00,100.08
3901.00,100.14
3898.00,100.14
3895.00,100.17
3892.00,100.10
3889.00,100.08
3886.00,100.11
3883.00,100.09
3880.00,100.07
3877.00,100.09
3874.00,100.12
3871.00,100.18
3868.00,100.11
3865.00,100.10
3862.00,100.05
3859.00,100.12
3856.00,100.22
3853.00,100.22
3850.00,100.20
3847.00,100.11
3844.00,100.16
3841.00,100.18
3838.00,100.15
3835.00,100.12
3832.00,100.05
3829.00,100.05
3826.00,100.09
3823.00,100.15
3820.00,100.11
3817.00,100.12
3814.00,100.08
3811.00,100.06
3808.00,100.13
3805.00,100.15
3802.00,100.06
3799.00,100.00
3796.00,99.99
3793.00,100.02
3790.00,100.02
3787.00,100.07
3784.00,100.05
3781.00,100.02
3778.00,99.98
3775.00,99.97
3772.00,100.02
3769.00,100.04
3766.00,99.97
3763.00,99.98
3760.00,100.03
3757.00,99.99
3754.00,100.06
3751.00,100.14
3748.00,100.17
3745.00,100.13
3742.00,100.11
3739.00,100.06
3736.00,100.07
3733.00,100.04
3730.00,99.99
3727.00,100.07
3724.00,100.04
3721.00,100.07
3718.00,99.99
3715.00,100.00
3712.00,100.06
3709.00,100.02
3706.00,99.93
3703.00,99.93
3700.00,99.96
3697.00,99.99
3694.00,99.95
3691.00,99.94
3688.00,99.86
3685.00,99.91
3682.00,99.89
3679.00,99.87
3676.00,99.88
3673.00,99.98
3670.00,99.92
3667.00,99.90
3664.00,99.84
3661.00,99.85
3658.00,99.92
3655.00,99.88
3652.00,99.87
3649.00,99.90
3646.00,99.87
3643.00,99.82
3640.00,99.78
3637.00,99.80
3634.00,99.79
3631.00,99.89
3628.00,99.84
3625.00,99.85
3622.00,99.76
3619.00,99.79
3616.00,99.86
3613.00,99.80
3610.00,99.74
3607.00,99.75
3604.00,99.71
3601.00,99.72
3598.00,99.67
3595.00,99.65
3592.00,99.71
3589.00,99.72
3586.00,99.72
3583.00,99.67
3580.00,99.57
3577.00,99.57
3574.00,99.52
3571.00,99.52
3568.00,99.67
3565.00,99.67
3562.00,99.48
3559.00,99.39
3556.00,99.37
3553.00,99.42
3550.00,99.42
3547.00,99.37
3544.00,99.38
3541.00,99.37
3538.00,99.28
3535.00,99.25
3532.00,99.27
3529.00,99.27
3526.00,99.23
3523.00,99.19
3520.00,99.15
3517.00,99.14
3514.00,99.08
3511.00,99.11
3508.00,99.08
3505.00,99.09
3502.00,99.10
3499.00,99.05
3496.00,99.01
3493.00,98.99
3490.00,99.05
3487.00,99.02
3484.00,98.99
3481.00,99.00
3478.00,98.99
3475.00,98.99
3472.00,98.98
3469.00,98.89
3466.00,98.88
3463.00,98.92
3460.00,98.93
3457.00,98.89
3454.00,98.85
3451.00,98.82
3448.00,98.87
3445.00,98.88
3442.00,98.86
3439.00,98.86
3436.00,98.84
3433.00,98.82
3430.00,98.79
3427.00,98.83
3424.00,98.86
3421.00,98.84
3418.00,98.76
3415.00,98.79
3412.00,98.83
3409.00,98.82
3406.00,98.77
3403.00,98.79
3400.00,98.73
3397.00,98.70
3394.00,98.71
3391.00,98.67
3388.00,98.61
3385.00,98.56
3382.00,98.56
3379.00,98.51
3376.00,98.48
3373.00,98.45
3370.00,98.39
3367.00,98.36
3364.00,98.28
3361.00,98.23
3358.00,98.17
3355.00,98.08
3352.00,97.95
3349.00,97.81
3346.00,97.70
3343.00,97.56
3340.00,97.40
3337.00,97.20
3334.00,96.92
3331.00,96.66
3328.00,96.37
3325.00,96.02
3322.00,95.53
3319.00,95.04
3316.00,94.39
3313.00,93.62
3310.00,92.86
3307.00,92.10
3304.00,91.44
3301.00,91.04
3298.00,90.92
3295.00,90.98
3292.00,91.27
3289.00,91.73
3286.00,92.16
3283.00,92.58
3280.00,92.97
3277.00,93.25
3274.00,93.64
3271.00,93.96
3268.00,94.14
3265.00,94.40
3262.00,94.65
3259.00,94.90
3256.00,95.13
3253.00,95.38
3250.00,95.62
3247.00,95.79
3244.00,95.92
3241.00,96.12
3238.00,96.29
3235.00,96.47
3232.00,96.66
3229.00,96.82
3226.00,96.92
3223.00,96.98
3220.00,97.05
3217.00,97.13
3214.00,97.20
3211.00,97.27
3208.00,97.32
3205.00,97.36
3202.00,97.42
3199.00,97.45
3196.00,97.46
3193.00,97.54
3190.00,97.58
3187.00,97.65
3184.00,97.73
3181.00,97.79
3178.00,97.84
3175.00,97.93
3172.00,97.99
3169.00,98.04
3166.00,98.10
3163.00,98.19
3160.00,98.30
3157.00,98.34
3154.00,98.37
3151.00,98.36
3148.00,98.37
3145.00,98.38
3142.00,98.44
3139.00,98.50
3136.00,98.50
3133.00,98.41
3130.00,98.45
3127.00,98.41
3124.00,98.42
3121.00,98.46
3118.00,98.45
3115.00,98.40
3112.00,98.33
3109.00,98.25
3106.00,98.17
3103.00,98.10
3100.00,98.03
3097.00,97.97
3094.00,97.88
3091.00,97.80
3088.00,97.78
3085.00,97.71
3082.00,97.69
3079.00,97.68
3076.00,97.69
3073.00,97.72
3070.00,97.73
3067.00,97.74
3064.00,97.76
3061.00,97.75
3058.00,97.80
3055.00,97.87
3052.00,97.98
3049.00,98.15
3046.00,98.24
3043.00,98.34
3040.00,98.46
3037.00,98.54
3034.00,98.60
3031.00,98.67
3028.00,98.72
3025.00,98.76
3022.00,98.80
3019.00,98.83
3016.00,98.85
3013.00,98.83
3010.00,98.85
3007.00,98.89
3004.00,98.91
3001.00,98.89
2998.00,98.90
2995.00,98.88
2992.00,98.85
2989.00,98.83
2986.00,98.79
2983.00,98.76
2980.00,98.64
2977.00,98.43
2974.00,98.32
2971.00,98.09
2968.00,97.82
2965.00,97.52
2962.00,97.28
2959.00,97.00
2956.00,96.59
2953.00,96.09
2950.00,95.39
2947.00,94.56
2944.00,93.89
2941.00,93.36
2938.00,92.85
2935.00,92.39
2932.00,92.25
2929.00,92.44
2926.00,92.79
2923.00,93.11
2920.00,93.46
2917.00,93.85
2914.00,94.27
2911.00,94.59
2908.00,94.83
2905.00,95.11
2902.00,95.48
2899.00,95.84
2896.00,96.17
2893.00,96.37
2890.00,96.49
2887.00,96.50
2884.00,96.32
2881.00,96.00
2878.00,95.58
2875.00,95.25
2872.00,95.10
2869.00,94.99
2866.00,94.75
2863.00,94.50
2860.00,94.28
2857.00,94.29
2854.00,94.60
2851.00,95.18
2848.00,95.84
2845.00,96.51
2842.00,96.99
2839.00,97.32
2836.00,97.56
2833.00,97.69
2830.00,97.74
2827.00,97.84
2824.00,97.89
2821.00,97.97
2818.00,98.07
2815.00,98.09
2812.00,98.16
2809.00,98.21
2806.00,98.23
2803.00,98.25
2800.00,98.29
2797.00,98.33
2794.00,98.39
2791.00,98.43
2788.00,98.45
2785.00,98.48
2782.00,98.49
2779.00,98.50
2776.00,98.50
2773.00,98.48
2770.00,98.51
2767.00,98.54
2764.00,98.57
2761.00,98.58
2758.00,98.59
2755.00,98.57
2752.00,98.58
2749.00,98.62
2746.00,98.60
2743.00,98.62
2740.00,98.64
2737.00,98.65
2734.00,98.63
2731.00,98.64
2728.00,98.69
2725.00,98.72
2722.00,98.74
2719.00,98.77
2716.00,98.77
2713.00,98.78
2710.00,98.80
2707.00,98.81
2704.00,98.78
2701.00,98.80
2698.00,98.80
2695.00,98.79
2692.00,98.79
2689.00,98.81
2686.00,98.83
2683.00,98.83
2680.00,98.83
2677.00,98.81
2674.00,98.84
2671.00,98.83
2668.00,98.82
2665.00,98.81
2662.00,98.83
2659.00,98.82
2656.00,98.83
2653.00,98.83
2650.00,98.80
2647.00,98.83
2644.00,98.83
2641.00,98.82
2638.00,98.78
2635.00,98.80
2632.00,98.75
2629.00,98.77
2626.00,98.80
2623.00,98.81
2620.00,98.82
2617.00,98.80
2614.00,98.81
2611.00,98.73
2608.00,98.72
2605.00,98.68
2602.00,98.71
2599.00,98.74
2596.00,98.70
2593.00,98.70
2590.00,98.70
2587.00,98.69
2584.00,98.66
2581.00,98.70
2578.00,98.74
2575.00,98.70
2572.00,98.70
2569.00,98.68
2566.00,98.71
2563.00,98.71
2560.00,98.69
2557.00,98.72
2554.00,98.71
2551.00,98.76
2548.00,98.70
2545.00,98.72
2542.00,98.72
2539.00,98.75
2536.00,98.72
2533.00,98.73
2530.00,98.71
2527.00,98.72
2524.00,98.73
2521.00,98.73
2518.00,98.74
2515.00,98.71
2512.00,98.73
2509.00,98.78
2506.00,98.76
2503.00,98.72
2500.00,98.72
2497.00,98.71
2494.00,98.69
2491.00,98.71
2488.00,98.67
2485.00,98.75
2482.00,98.72
2479.00,98.70
2476.00,98.74
2473.00,98.82
2470.00,98.69
2467.00,98.69
2464.00,98.75
2461.00,98.78
2458.00,98.76
2455.00,98.70
2452.00,98.75
2449.00,98.75
2446.00,98.73
2443.00,98.72
2440.00,98.73
2437.00,98.81
2434.00,98.77
2431.00,98.74
2428.00,98.76
2425.00,98.76
2422.00,98.78
2419.00,98.74
2416.00,98.75
2413.00,98.76
2410.00,98.77
2407.00,98.75
2404.00,98.75
2401.00,98.76
2398.00,98.76
2395.00,98.79
2392.00,98.80
2389.00,98.79
2386.00,98.85
2383.00,98.86
2380.00,98.86
2377.00,98.95
2374.00,98.99
2371.00,98.92
2368.00,98.87
2365.00,98.91
2362.00,98.89
2359.00,98.83
2356.00,98.86
2353.00,98.85
2350.00,98.83
2347.00,98.82
2344.00,98.78
2341.00,98.80
2338.00,98.83
2335.00,98.80
2332.00,98.73
2329.00,98.71
2326.00,98.72
2323.00,98.68
2320.00,98.68
2317.00,98.70
2314.00,98.66
2311.00,98.72
2308.00,98.77
2305.00,98.78
2302.00,98.78
2299.00,98.70
2296.00,98.67
2293.00,98.65
2290.00,98.60
2287.00,98.64
2284.00,98.57
2281.00,98.51
2278.00,98.60
2275.00,98.58
2272.00,98.55
2269.00,98.44
2266.00,98.45
2263.00,98.52
2260.00,98.55
2257.00,98.47
2254.00,98.39
2251.00,98.46
2248.00,98.47
2245.00,98.42
2242.00,98.44
2239.00,98.43
2236.00,98.40
2233.00,98.34
2230.00,98.46
2227.00,98.52
2224.00,98.50
2221.00,98.37
2218.00,98.39
2215.00,98.35
2212.00,98.26
2209.00,98.35
2206.00,98.39
2203.00,98.17
2200.00,98.20
2197.00,98.35
2194.00,98.30
2191.00,98.35
2188.00,98.24
2185.00,98.13
2182.00,98.20
2179.00,98.29
2176.00,98.12
2173.00,98.21
2170.00,98.15
2167.00,98.09
2164.00,98.11
2161.00,97.98
2158.00,98.08
2155.00,98.15
2152.00,98.26
2149.00,98.28
2146.00,98.31
2143.00,98.35
2140.00,98.35
2137.00,98.43
2134.00,98.46
2131.00,98.53
2128.00,98.47
2125.00,98.49
2122.00,98.47
2119.00,98.44
2116.00,98.48
2113.00,98.45
2110.00,98.46
2107.00,98.48
2104.00,98.49
2101.00,98.50
2098.00,98.42
2095.00,98.36
2092.00,98.40
2089.00,98.39
2086.00,98.35
2083.00,98.40
2080.00,98.40
2077.00,98.38
2074.00,98.31
2071.00,98.34
2068.00,98.40
2065.00,98.41
2062.00,98.35
2059.00,98.31
2056.00,98.25
2053.00,98.32
2050.00,98.35
2047.00,98.30
2044.00,98.24
2041.00,98.19
2038.00,98.15
2035.00,98.19
2032.00,98.17
2029.00,98.26
2026.00,98.32
2023.00,98.28
2020.00,98.25
2017.00,98.30
2014.00,98.32
2011.00,98.26
2008.00,98.37
2005.00,98.34
2002.00,98.29
1999.00,98.38
1996.00,98.39
1993.00,98.28
1990.00,98.16
1987.00,98.21
1984.00,98.27
1981.00,98.18
1978.00,98.29
1975.00,98.17
1972.00,98.27
1969.00,98.42
1966.00,98.25
1963.00,98.34
1960.00,98.44
1957.00,98.52
1954.00,98.48
1951.00,98.54
1948.00,98.49
1945.00,98.51
1942.00,98.62
1939.00,98.57
1936.00,98.56
1933.00,98.56
1930.00,98.52
1927.00,98.56
1924.00,98.51
1921.00,98.50
1918.00,98.60
1915.00,98.58
1912.00,98.58
1909.00,98.63
1906.00,98.66
1903.00,98.67
1900.00,98.65
1897.00,98.69
1894.00,98.69
1891.00,98.72
1888.00,98.74
1885.00,98.68
1882.00,98.72
1879.00,98.78
1876.00,98.75
1873.00,98.75
1870.00,98.74
1867.00,98.78
1864.00,98.82
1861.00,98.86
1858.00,98.82
1855.00,98.79
1852.00,98.75
1849.00,98.78
1846.00,98.84
1843.00,98.84
1840.00,98.87
1837.00,98.89
1834.00,98.89
1831.00,98.91
1828.00,98.95
1825.00,98.94
1822.00,98.92
1819.00,98.90
1816.00,98.93
1813.00,98.92
1810.00,99.00
1807.00,98.97
1804.00,98.95
1801.00,98.99
1798.00,98.99
1795.00,99.01
1792.00,99.02
1789.00,99.01
1786.00,99.02
1783.00,99.04
1780.00,99.04
1777.00,99.05
1774.00,99.07
1771.00,99.03
1768.00,98.96
1765.00,98.95
1762.00,99.01
1759.00,99.01
1756.00,98.98
1753.00,98.96
1750.00,98.98
1747.00,98.92
1744.00,98.88
1741.00,98.80
1738.00,98.83
1735.00,98.82
1732.00,98.83
1729.00,98.82
1726.00,98.84
1723.00,98.85
1720.00,98.86
1717.00,98.85
1714.00,98.86
1711.00,98.85
1708.00,98.87
1705.00,98.88
1702.00,98.91
1699.00,98.95
1696.00,98.97
1693.00,98.93
1690.00,98.86
1687.00,98.81
1684.00,98.56
1681.00,98.26
1678.00,97.95
1675.00,97.48
1672.00,96.99
1669.00,96.30
1666.00,95.45
1663.00,94.52
1660.00,93.52
1657.00,92.57
1654.00,91.49
1651.00,90.06
1648.00,88.87
1645.00,87.22
1642.00,85.68
1639.00,84.14
1636.00,82.67
1633.00,81.85
1630.00,81.83
1627.00,82.78
1624.00,83.77
1621.00,85.09
1618.00,86.07
1615.00,87.82
1612.00,88.81
1609.00,89.82
1606.00,90.70
1603.00,91.60
1600.00,92.43
1597.00,93.06
1594.00,93.52
1591.00,93.84
1588.00,94.01
1585.00,94.03
1582.00,93.91
1579.00,93.68
1576.00,93.27
1573.00,92.80
1570.00,92.25
1567.00,91.58
1564.00,90.85
1561.00,90.17
1558.00,89.41
1555.00,88.71
1552.00,87.94
1549.00,87.07
1546.00,86.06
1543.00,84.84
1540.00,83.38
1537.00,82.10
1534.00,81.22
1531.00,81.08
1528.00,81.47
1525.00,82.52
1522.00,83.69
1519.00,85.16
1516.00,86.42
1513.00,87.34
1510.00,88.17
1507.00,89.18
1504.00,90.12
1501.00,90.54
1498.00,91.13
1495.00,91.75
1492.00,92.08
1489.00,92.55
1486.00,92.69
1483.00,92.45
1480.00,91.54
1477.00,89.97
1474.00,88.98
1471.00,89.82
1468.00,89.73
1465.00,88.98
1462.00,89.10
1459.00,89.64
1456.00,90.53
1453.00,90.78
1450.00,91.09
1447.00,91.30
1444.00,91.26
1441.00,91.18
1438.00,91.06
1435.00,91.18
1432.00,91.35
1429.00,91.69
1426.00,91.80
1423.00,91.60
1420.00,90.74
1417.00,89.50
1414.00,89.96
1411.00,91.32
1408.00,92.29
1405.00,92.84
1402.00,93.14
1399.00,93.28
1396.00,93.26
1393.00,93.12
1390.00,92.87
1387.00,92.66
1384.00,92.47
1381.00,92.25
1378.00,91.85
1375.00,91.26
1372.00,90.75
1369.00,90.63
1366.00,90.82
1363.00,91.10
1360.00,91.43
1357.00,91.63
1354.00,91.87
1351.00,92.13
1348.00,92.42
1345.00,92.66
1342.00,92.86
1339.00,93.05
1336.00,93.16
1333.00,93.20
1330.00,93.18
1327.00,93.25
1324.00,93.40
1321.00,93.52
1318.00,93.57
1315.00,93.57
1312.00,93.47
1309.00,93.29
1306.00,93.09
1303.00,92.96
1300.00,92.98
1297.00,93.02
1294.00,92.96
1291.00,92.80
1288.00,92.50
1285.00,91.85
1282.00,90.95
1279.00,89.85
1276.00,89.00
1273.00,88.75
1270.00,88.84
1267.00,89.20
1264.00,89.64
1261.00,90.05
1258.00,90.47
1255.00,90.77
1252.00,91.07
1249.00,91.36
1246.00,91.58
1243.00,91.76
1240.00,91.95
1237.00,92.14
1234.00,92.35
1231.00,92.58
1228.00,92.70
1225.00,92.59
1222.00,92.73
1219.00,93.14
1216.00,93.39
1213.00,93.48
1210.00,93.40
1207.00,92.97
1204.00,91.92
1201.00,90.33
1198.00,89.14
1195.00,89.58
1192.00,90.83
1189.00,91.62
1186.00,91.88
1183.00,91.70
1180.00,91.45
1177.00,91.56
1174.00,92.14
1171.00,92.72
1168.00,93.19
1165.00,93.53
1162.00,93.68
1159.00,93.71
1156.00,93.60
1153.00,93.39
1150.00,93.11
1147.00,92.93
1144.00,92.89
1141.00,92.78
1138.00,92.66
1135.00,93.02
1132.00,93.46
1129.00,93.84
1126.00,94.06
1123.00,94.15
1120.00,94.23
1117.00,94.27
1114.00,94.27
1111.00,94.27
1108.00,94.37
1105.00,94.37
1102.00,94.37
1099.00,94.45
1096.00,94.41
1093.00,94.49
1090.00,94.51
1087.00,94.54
1084.00,94.69
1081.00,94.77
1078.00,94.93
1075.00,94.98
1072.00,94.90
1069.00,94.65
1066.00,94.54
1063.00,94.51
1060.00,94.64
1057.00,94.71
1054.00,94.77
1051.00,94.77
1048.00,94.78
1045.00,94.66
1042.00,94.57
1039.00,94.53
1036.00,94.72
1033.00,94.93
1030.00,95.00
1027.00,95.08
1024.00,95.11
1021.00,95.16
1018.00,95.21
1015.00,95.18
1012.00,95.17
1009.00,95.21
1006.00,95.36
1003.00,95.39
1000.00,95.42
997.00,95.44
994.00,95.58
991.00,95.59
988.00,95.64
985.00,95.68
982.00,95.77
979.00,95.91
976.00,95.96
973.00,95.91
970.00,95.89
967.00,95.97
964.00,96.00
961.00,96.01
958.00,95.91
955.00,95.89
952.00,95.82
949.00,95.73
946.00,95.57
943.00,95.25
940.00,94.47
937.00,93.08
934.00,92.37
931.00,92.90
928.00,93.75
925.00,94.38
922.00,94.71
919.00,94.94
916.00,95.11
913.00,95.23
910.00,95.18
907.00,94.92
904.00,95.01
901.00,95.33
898.00,95.58
895.00,95.75
892.00,95.78
889.00,95.84
886.00,95.88
883.00,95.92
880.00,95.89
877.00,95.85
874.00,95.77
871.00,95.89
868.00,95.98
865.00,96.06
862.00,96.06
859.00,96.10
856.00,96.07
853.00,96.09
850.00,96.09
847.00,96.01
844.00,96.11
841.00,96.11
838.00,96.09
835.00,95.99
832.00,96.03
829.00,96.06
826.00,96.00
823.00,95.97
820.00,95.89
817.00,95.88
814.00,95.78
811.00,95.71
808.00,95.63
805.00,95.54
802.00,95.43
799.00,95.34
796.00,95.39
793.00,95.39
790.00,95.35
787.00,95.24
784.00,95.15
781.00,95.11
778.00,94.99
775.00,94.89
772.00,94.84
769.00,94.70
766.00,94.54
763.00,94.36
760.00,94.27
757.00,94.21
754.00,94.19
751.00,94.02
748.00,93.85
745.00,93.75
742.00,93.55
739.00,93.17
736.00,92.56
733.00,91.70
730.00,90.85
727.00,90.73
724.00,90.79
721.00,90.72
718.00,90.55
715.00,90.54
712.00,90.40
709.00,90.38
706.00,90.03
703.00,89.70
700.00,89.26
697.00,88.54
694.00,87.77
691.00,87.04
688.00,86.55
685.00,86.32
682.00,86.29
679.00,86.50
676.00,86.76
673.00,87.26
670.00,87.43
667.00,87.80
664.00,88.18
661.00,88.47
658.00,88.88
655.00,89.39
652.00,89.64
649.00,89.84
646.00,89.89
643.00,89.84
640.00,90.09
637.00,90.12
634.00,90.08
631.00,89.81
628.00,90.35
625.00,90.64
622.00,90.33
619.00,89.87
616.00,90.35
613.00,89.77
610.00,90.48
607.00,89.89
604.00,90.00
601.00,90.08
598.00,90.18
595.00,90.06
592.00,89.23
589.00,89.30
586.00,88.53
583.00,86.63
580.00,85.71
577.00,84.75
574.00,85.43
571.00,84.82
568.00,86.40
565.00,87.98
562.00,87.65
559.00,87.68
556.00,89.05
553.00,90.61
550.00,90.11