File: raw_csv_data/Nylon - 10.csv
Created as New Dataset,80. Nylon Allied Signal Fibers Dyed
cm-1,%T
4000.00,100.06
3997.00,100.03
3994.00,99.99
3991.00,100.04
3988.00,100.04
3985.00,100.05
3982.00,100.07
3979.00,100.05
3976.00,100.01
3973.00,100.05
3970.00,100.05
3967.00,100.03
3964.00,100.09
3961.00,100.07
3958.00,100.07
3955.00,100.07
3952.00,100.04
3949.00,100.04
3946.00,100.07
3943.00,100.06
3940.00,100.04
3937.00,100.03
3934.00,100.06
3931.00,100.06
3928.00,100.05
3925.00,100.05
3922.00,99.95
3919.00,99.99
3916.00,99.98
3913.00,99.98
3910.00,100.07
3907.00,100.10
3904.00,100.01
3901.00,99.92
3898.00,99.94
3895.00,99.92
3892.00,99.94
3889.00,99.94
3886.00,99.95
3883.00,99.92
3880.00,99.98
3877.00,99.99
3874.00,100.04
3871.00,99.97
3868.00,99.92
3865.00,99.90
3862.00,99.91
3859.00,99.94
3856.00,99.88
3853.00,99.80
3850.00,99.82
3847.00,99.97
3844.00,100.02
3841.00,99.97
3838.00,99.89
3835.00,99.85
3832.00,99.91
3829.00,99.94
3826.00,99.96
3823.00,99.88
3820.00,99.84
3817.00,99.80
3814.00,99.85
3811.00,99.94
3808.00,99.94
3805.00,99.93
3802.00,99.91
3799.00,99.85
3796.00,99.96
3793.00,99.98
3790.00,99.95
3787.00,99.97
3784.00,100.00
3781.00,99.96
3778.00,99.96
3775.00,99.97
3772.00,99.97
3769.00,99.95
3766.00,99.95
3763.00,99.91
3760.00,99.93
3757.00,99.92
3754.00,99.84
3751.00,99.87
3748.00,99.77
3745.00,99.68
3742.00,99.72
3739.00,99.82
3736.00,99.82
3733.00,99.76
3730.00,99.86
3727.00,99.87
3724.00,99.88
3721.00,99.92
3718.00,99.97
3715.00,99.86
3712.00,99.84
3709.00,99.80
3706.00,99.84
3703.00,99.90
3700.00,99.92
3697.00,99.94
3694.00,99.98
3691.00,99.95
3688.00,99.80
3685.00,99.84
3682.00,99.93
3679.00,99.82
3676.00,99.75
3673.00,99.64
3670.00,99.69
3667.00,99.76
3664.00,99.85
3661.00,99.86
3658.00,99.77
3655.00,99.76
3652.00,99.66
3649.00,99.60
3646.00,99.69
3643.00,99.78
3640.00,99.82
3637.00,99.75
3634.00,99.73
3631.00,99.71
3628.00,99.64
3625.00,99.63
3622.00,99.69
3619.00,99.67
3616.00,99.61
3613.00,99.58
3610.00,99.61
3607.00,99.62
3604.00,99.54
3601.00,99.58
3598.00,99.52
3595.00,99.54
3592.00,99.52
3589.00,99.57
3586.00,99.57
3583.00,99.58
3580.00,99.57
3577.00,99.48
3574.00,99.45
3571.00,99.41
3568.00,99.36
3565.00,99.32
3562.00,99.35
3559.00,99.41
3556.00,99.40
3553.00,99.30
3550.00,99.29
3547.00,99.29
3544.00,99.22
3541.00,99.25
3538.00,99.19
3535.00,99.14
3532.00,99.13
3529.00,99.11
3526.00,99.04
3523.00,99.07
3520.00,99.06
3517.00,99.08
3514.00,99.04
3511.00,99.02
3508.00,99.02
3505.00,98.98
3502.00,99.03
3499.00,99.00
3496.00,98.95
3493.00,98.97
3490.00,98.92
3487.00,98.83
3484.00,98.84
3481.00,98.87
3478.00,98.83
3475.00,98.83
3472.00,98.82
3469.00,98.80
3466.00,98.75
3463.00,98.72
3460.00,98.77
3457.00,98.70
3454.00,98.67
3451.00,98.66
3448.00,98.65
3445.00,98.65
3442.00,98.66
3439.00,98.61
3436.00,98.57
3433.00,98.56
3430.00,98.54
3427.00,98.59
3424.00,98.59
3421.00,98.54
3418.00,98.53
3415.00,98.46
3412.00,98.43
3409.00,98.44
3406.00,98.44
3403.00,98.45
3400.00,98.40
3397.00,98.31
3394.00,98.31
3391.00,98.26
3388.00,98.23
3385.00,98.23
3382.00,98.15
3379.00,98.07
3376.00,97.98
3373.00,97.91
3370.00,97.91
3367.00,97.85
3364.00,97.73
3361.00,97.62
3358.00,97.59
3355.00,97.43
3352.00,97.29
3349.00,97.16
3346.00,96.95
3343.00,96.78
3340.00,96.51
3337.00,96.25
3334.00,95.97
3331.00,95.62
3328.00,95.20
3325.00,94.75
3322.00,94.15
3319.00,93.58
3316.00,93.04
3313.00,92.45
3310.00,91.67
3307.00,90.74
3304.00,89.69
3301.00,88.82
3298.00,88.21
3295.00,87.98
3292.00,88.12
3289.00,88.58
3286.00,89.21
3283.00,89.88
3280.00,90.56
3277.00,91.21
3274.00,91.72
3271.00,92.20
3268.00,92.66
3265.00,93.09
3262.00,93.51
3259.00,93.90
3256.00,94.26
3253.00,94.54
3250.00,94.83
3247.00,95.13
3244.00,95.40
3241.00,95.64
3238.00,95.84
3235.00,96.06
3232.00,96.23
3229.00,96.37
3226.00,96.50
3223.00,96.57
3220.00,96.72
3217.00,96.82
3214.00,96.82
3211.00,96.86
3208.00,96.89
3205.00,96.91
3202.00,96.98
3199.00,97.05
3196.00,97.12
3193.00,97.15
3190.00,97.22
3187.00,97.31
3184.00,97.35
3181.00,97.42
3178.00,97.51
3175.00,97.64
3172.00,97.75
3169.00,97.80
3166.00,97.92
3163.00,97.98
3160.00,98.03
3157.00,98.09
3154.00,98.19
3151.00,98.20
3148.00,98.28
3145.00,98.26
3142.00,98.27
3139.00,98.33
3136.00,98.37
3133.00,98.33
3130.00,98.31
3127.00,98.27
3124.00,98.32
3121.00,98.25
3118.00,98.22
3115.00,98.21
3112.00,98.15
3109.00,98.08
3106.00,98.00
3103.00,97.93
3100.00,97.84
3097.00,97.71
3094.00,97.67
3091.00,97.66
3088.00,97.62
3085.00,97.54
3082.00,97.49
3079.00,97.45
3076.00,97.41
3073.00,97.38
3070.00,97.36
3067.00,97.32
3064.00,97.32
3061.00,97.36
3058.00,97.42
3055.00,97.53
3052.00,97.64
3049.00,97.77
3046.00,97.94
3043.00,98.12
3040.00,98.22
3037.00,98.37
3034.00,98.46
3031.00,98.53
3028.00,98.58
3025.00,98.62
3022.00,98.64
3019.00,98.68
3016.00,98.69
3013.00,98.65
3010.00,98.69
3007.00,98.65
3004.00,98.60
3001.00,98.63
2998.00,98.62
2995.00,98.58
2992.00,98.55
2989.00,98.52
2986.00,98.41
2983.00,98.29
2980.00,98.17
2977.00,98.02
2974.00,97.76
2971.00,97.47
2968.00,97.12
2965.00,96.76
2962.00,96.39
2959.00,95.93
2956.00,95.29
2953.00,94.41
2950.00,93.35
2947.00,92.31
2944.00,91.52
2941.00,91.08
2938.00,90.81
2935.00,90.67
2932.00,90.85
2929.00,91.20
2926.00,91.65
2923.00,92.09
2920.00,92.57
2917.00,93.04
2914.00,93.48
2911.00,93.85
2908.00,94.13
2905.00,94.33
2902.00,94.37
2899.00,94.45
2896.00,94.74
2893.00,95.15
2890.00,95.46
2887.00,95.58
2884.00,95.48
2881.00,95.16
2878.00,94.59
2875.00,93.97
2872.00,93.43
2869.00,93.09
2866.00,93.00
2863.00,93.11
2860.00,93.30
2857.00,93.57
2854.00,93.89
2851.00,94.37
2848.00,95.13
2845.00,96.01
2842.00,96.68
2839.00,97.14
2836.00,97.45
2833.00,97.63
2830.00,97.73
2827.00,97.86
2824.00,97.96
2821.00,97.97
2818.00,98.03
2815.00,98.15
2812.00,98.23
2809.00,98.31
2806.00,98.37
2803.00,98.36
2800.00,98.41
2797.00,98.49
2794.00,98.55
2791.00,98.58
2788.00,98.58
2785.00,98.61
2782.00,98.62
2779.00,98.69
2776.00,98.70
2773.00,98.73
2770.00,98.76
2767.00,98.80
2764.00,98.81
2761.00,98.82
2758.00,98.80
2755.00,98.79
2752.00,98.80
2749.00,98.79
2746.00,98.78
2743.00,98.81
2740.00,98.82
2737.00,98.84
2734.00,98.85
2731.00,98.87
2728.00,98.93
2725.00,98.97
2722.00,99.01
2719.00,98.99
2716.00,99.05
2713.00,99.06
2710.00,99.05
2707.00,99.05
2704.00,99.08
2701.00,99.12
2698.00,99.14
2695.00,99.12
2692.00,99.15
2689.00,99.15
2686.00,99.17
2683.00,99.19
2680.00,99.18
2677.00,99.16
2674.00,99.18
2671.00,99.21
2668.00,99.22
2665.00,99.20
2662.00,99.16
2659.00,99.16
2656.00,99.15
2653.00,99.18
2650.00,99.15
2647.00,99.13
2644.00,99.13
2641.00,99.13
2638.00,99.10
2635.00,99.11
2632.00,99.13
2629.00,99.11
2626.00,99.12
2623.00,99.10
2620.00,99.10
2617.00,99.10
2614.00,99.10
2611.00,99.09
2608.00,99.07
2605.00,99.06
2602.00,99.05
2599.00,99.04
2596.00,99.09
2593.00,99.09
2590.00,99.08
2587.00,99.06
2584.00,99.10
2581.00,99.08
2578.00,99.11
2575.00,99.10
2572.00,99.11
2569.00,99.06
2566.00,99.13
2563.00,99.12
2560.00,99.11
2557.00,99.08
2554.00,99.07
2551.00,99.09
2548.00,99.11
2545.00,99.11
2542.00,99.09
2539.00,99.11
2536.00,99.06
2533.00,99.08
2530.00,99.13
2527.00,99.15
2524.00,99.12
2521.00,99.13
2518.00,99.12
2515.00,99.16
2512.00,99.20
2509.00,99.20
2506.00,99.19
2503.00,99.22
2500.00,99.22
2497.00,99.21
2494.00,99.25
2491.00,99.25
2488.00,99.24
2485.00,99.20
2482.00,99.20
2479.00,99.22
2476.00,99.19
2473.00,99.20
2470.00,99.26
2467.00,99.23
2464.00,99.24
2461.00,99.23
2458.00,99.23
2455.00,99.24
2452.00,99.26
2449.00,99.28
2446.00,99.25
2443.00,99.25
2440.00,99.26
2437.00,99.22
2434.00,99.27
2431.00,99.30
2428.00,99.33
2425.00,99.34
2422.00,99.33
2419.00,99.36
2416.00,99.34
2413.00,99.34
2410.00,99.39
2407.00,99.42
2404.00,99.41
2401.00,99.40
2398.00,99.37
2395.00,99.40
2392.00,99.43
2389.00,99.40
2386.00,99.35
2383.00,99.39
2380.00,99.49
2377.00,99.48
2374.00,99.43
2371.00,99.51
2368.00,99.47
2365.00,99.48
2362.00,99.59
2359.00,99.38
2356.00,99.37
2353.00,99.44
2350.00,99.46
2347.00,99.58
2344.00,99.46
2341.00,99.39
2338.00,99.38
2335.00,99.37
2332.00,99.36
2329.00,99.33
2326.00,99.17
2323.00,99.23
2320.00,99.35
2317.00,99.33
2314.00,99.26
2311.00,99.21
2308.00,99.25
2305.00,99.33
2302.00,99.38
2299.00,99.32
2296.00,99.33
2293.00,99.28
2290.00,99.31
2287.00,99.23
2284.00,99.24
2281.00,99.22
2278.00,99.19
2275.00,99.19
2272.00,99.20
2269.00,99.19
2266.00,99.18
2263.00,99.20
2260.00,99.15
2257.00,99.14
2254.00,99.17
2251.00,99.16
2248.00,99.15
2245.00,99.18
2242.00,99.11
2239.00,99.16
2236.00,99.13
2233.00,99.12
2230.00,99.06
2227.00,99.14
2224.00,99.11
2221.00,99.02
2218.00,99.11
2215.00,99.10
2212.00,98.97
2209.00,98.85
2206.00,98.85
2203.00,98.93
2200.00,98.88
2197.00,98.93
2194.00,98.90
2191.00,98.98
2188.00,98.91
2185.00,98.89
2182.00,98.78
2179.00,98.71
2176.00,98.77
2173.00,98.86
2170.00,98.81
2167.00,98.68
2164.00,98.66
2161.00,98.57
2158.00,98.85
2155.00,99.17
2152.00,98.99
2149.00,98.87
2146.00,99.11
2143.00,99.20
2140.00,99.09
2137.00,99.09
2134.00,99.30
2131.00,99.33
2128.00,99.39
2125.00,99.29
2122.00,99.26
2119.00,99.29
2116.00,99.23
2113.00,99.11
2110.00,99.14
2107.00,99.23
2104.00,99.25
2101.00,99.16
2098.00,99.22
2095.00,99.33
2092.00,99.41
2089.00,99.33
2086.00,99.25
2083.00,99.23
2080.00,99.26
2077.00,99.16
2074.00,99.19
2071.00,99.23
2068.00,99.09
2065.00,99.12
2062.00,99.15
2059.00,99.14
2056.00,99.13
2053.00,99.13
2050.00,99.09
2047.00,99.03
2044.00,98.94
2041.00,98.94
2038.00,98.93
2035.00,98.94
2032.00,99.04
2029.00,99.06
2026.00,99.03
2023.00,99.01
2020.00,98.98
2017.00,98.91
2014.00,98.94
2011.00,98.99
2008.00,98.98
2005.00,99.06
2002.00,99.04
1999.00,99.14
1996.00,99.21
1993.00,99.12
1990.00,99.03
1987.00,98.89
1984.00,98.98
1981.00,98.99
1978.00,99.14
1975.00,99.08
1972.00,99.13
1969.00,99.10
1966.00,99.05
1963.00,99.04
1960.00,99.18
1957.00,99.19
1954.00,99.20
1951.00,99.22
1948.00,99.32
1945.00,99.37
1942.00,99.28
1939.00,99.32
1936.00,99.46
1933.00,99.47
1930.00,99.45
1927.00,99.52
1924.00,99.52
1921.00,99.44
1918.00,99.53
1915.00,99.59
1912.00,99.51
1909.00,99.51
1906.00,99.49
1903.00,99.55
1900.00,99.58
1897.00,99.63
1894.00,99.64
1891.00,99.62
1888.00,99.59
1885.00,99.66
1882.00,99.65
1879.00,99.63
1876.00,99.72
1873.00,99.71
1870.00,99.68
1867.00,99.71
1864.00,99.72
1861.00,99.70
1858.00,99.76
1855.00,99.81
1852.00,99.83
1849.00,99.75
1846.00,99.76
1843.00,99.79
1840.00,99.77
1837.00,99.78
1834.00,99.83
1831.00,99.81
1828.00,99.77
1825.00,99.80
1822.00,99.82
1819.00,99.87
1816.00,99.93
1813.00,99.91
1810.00,99.88
1807.00,99.89
1804.00,99.92
1801.00,99.91
1798.00,99.87
1795.00,99.89
1792.00,99.91
1789.00,99.87
1786.00,99.86
1783.00,99.86
1780.00,99.91
1777.00,99.87
1774.00,99.85
1771.00,99.85
1768.00,99.84
1765.00,99.83
1762.00,99.82
1759.00,99.73
1756.00,99.70
1753.00,99.66
1750.00,99.49
1747.00,99.37
1744.00,99.14
1741.00,98.90
1738.00,98.75
1735.00,98.63
1732.00,98.39
1729.00,98.29
1726.00,98.29
1723.00,98.34
1720.00,98.37
1717.00,98.46
1714.00,98.49
1711.00,98.56
1708.00,98.57
1705.00,98.65
1702.00,98.66
1699.00,98.66
1696.00,98.68
1693.00,98.51
1690.00,98.34
1687.00,98.13
1684.00,97.65
1681.00,97.15
1678.00,96.61
1675.00,96.01
1672.00,95.22
1669.00,94.10
1666.00,92.79
1663.00,91.58
1660.00,90.60
1657.00,89.72
1654.00,88.71
1651.00,87.19
1648.00,85.33
1645.00,83.18
1642.00,80.89
1639.00,78.78
1636.00,77.75
1633.00,78.10
1630.00,78.54
1627.00,79.74
1624.00,80.85
1621.00,82.38
1618.00,83.54
1615.00,85.63
1612.00,86.68
1609.00,87.93
1606.00,89.33
1603.00,90.67
1600.00,91.82
1597.00,92.71
1594.00,93.39
1591.00,93.82
1588.00,94.00
1585.00,94.03
1582.00,93.87
1579.00,93.48
1576.00,92.99
1573.00,92.35
1570.00,91.55
1567.00,90.80
1564.00,89.95
1561.00,89.00
1558.00,88.18
1555.00,87.13
1552.00,85.76
1549.00,84.14
1546.00,82.47
1543.00,81.03
1540.00,80.58
1537.00,80.58
1534.00,80.82
1531.00,81.93
1528.00,82.83
1525.00,84.15
1522.00,85.37
1519.00,86.75
1516.00,87.97
1513.00,88.95
1510.00,89.78
1507.00,90.85
1504.00,91.91
1501.00,92.33
1498.00,93.00
1495.00,93.71
1492.00,93.94
1489.00,94.14
1486.00,93.68
1483.00,92.38
1480.00,90.98
1477.00,90.47
1474.00,90.98
1471.00,91.73
1468.00,90.98
1465.00,89.43
1462.00,88.98
1459.00,89.62
1456.00,90.91
1453.00,91.12
1450.00,91.28
1447.00,91.67
1444.00,91.83
1441.00,91.84
1438.00,91.79
1435.00,91.93
1432.00,92.11
1429.00,92.54
1426.00,92.42
1423.00,91.73
1420.00,90.71
1417.00,90.01
1414.00,90.10
1411.00,91.07
1408.00,92.36
1405.00,93.43
1402.00,94.05
1399.00,94.38
1396.00,94.49
1393.00,94.42
1390.00,94.14
1387.00,93.82
1384.00,93.38
1381.00,92.80
1378.00,92.21
1375.00,91.76
1372.00,91.68
1369.00,91.85
1366.00,92.16
1363.00,92.47
1360.00,92.76
1357.00,93.00
1354.00,93.27
1351.00,93.50
1348.00,93.66
1345.00,93.80
1342.00,93.92
1339.00,94.15
1336.00,94.29
1333.00,94.40
1330.00,94.56
1327.00,94.73
1324.00,94.83
1321.00,94.84
1318.00,94.74
1315.00,94.66
1312.00,94.60
1309.00,94.48
1306.00,94.26
1303.00,94.07
1300.00,93.98
1297.00,93.88
1294.00,93.60
1291.00,93.46
1288.00,93.53
1285.00,93.41
1282.00,93.20
1279.00,93.01
1276.00,92.88
1273.00,92.53
1270.00,91.72
1267.00,90.56
1264.00,89.84
1261.00,90.04
1258.00,90.59
1255.00,91.18
1252.00,91.74
1249.00,92.16
1246.00,92.39
1243.00,92.44
1240.00,92.46
1237.00,92.62
1234.00,93.07
1231.00,93.70
1228.00,94.32
1225.00,94.82
1222.00,94.96
1219.00,94.65
1216.00,93.99
1213.00,93.66
1210.00,93.71
1207.00,93.47
1204.00,92.49
1201.00,91.21
1198.00,91.25
1195.00,92.31
1192.00,93.29
1189.00,93.94
1186.00,94.34
1183.00,94.52
1180.00,94.40
1177.00,93.89
1174.00,93.22
1171.00,92.70
1168.00,92.68
1165.00,93.09
1162.00,93.80
1159.00,94.51
1156.00,94.99
1153.00,95.30
1150.00,95.63
1147.00,96.03
1144.00,96.39
1141.00,96.73
1138.00,96.90
1135.00,96.96
1132.00,96.90
1129.00,96.58
1126.00,96.09
1123.00,95.86
1120.00,95.84
1117.00,95.96
1114.00,95.99
1111.00,96.04
1108.00,96.18
1105.00,96.46
1102.00,96.72
1099.00,96.90
1096.00,97.10
1093.00,97.14
1090.00,97.23
1087.00,97.27
1084.00,97.22
1081.00,97.15
1078.00,97.13
1075.00,97.10
1072.00,97.17
1069.00,97.24
1066.00,97.38
1063.00,97.52
1060.00,97.76
1057.00,98.02
1054.00,98.22
1051.00,98.32
1048.00,98.40
1045.00,98.44
1042.00,98.42
1039.00,98.35
1036.00,98.21
1033.00,97.99
1030.00,97.75
1027.00,97.88
1024.00,98.16
1021.00,98.42
1018.00,98.57
1015.00,98.67
1012.00,98.78
1009.00,98.79
1006.00,98.86
1003.00,98.87
1000.00,98.91
997.00,98.87
994.00,98.78
991.00,98.70
988.00,98.72
985.00,98.60
982.00,98.49
979.00,98.43
976.00,98.35
973.00,98.32
970.00,98.24
967.00,98.17
964.00,97.83
961.00,97.29
958.00,97.22
955.00,97.56
952.00,97.71
949.00,97.84
946.00,98.31
943.00,98.63
940.00,98.80
937.00,98.74
934.00,98.56
931.00,98.23
928.00,98.02
925.00,98.34
922.00,98.82
919.00,99.04
916.00,99.17
913.00,99.31
910.00,99.40
907.00,99.51
904.00,99.57
901.00,99.56
898.00,99.58
895.00,99.63
892.00,99.63
889.00,99.69
886.00,99.71
883.00,99.73
880.00,99.78
877.00,99.85
874.00,99.94
871.00,99.95
868.00,99.93
865.00,99.91
862.00,99.96
859.00,99.98
856.00,100.00
853.00,99.95
850.00,99.96
847.00,99.92
844.00,99.72
841.00,99.70
838.00,99.51
835.00,99.15
832.00,99.02
829.00,99.34
826.00,99.43
823.00,99.61
820.00,99.60
817.00,99.57
814.00,99.56
811.00,99.58
808.00,99.44
805.00,99.32
802.00,99.25
799.00,99.09
796.00,98.90
793.00,98.86
790.00,98.86
787.00,98.71
784.00,98.66
781.00,98.50
778.00,98.42
775.00,98.34
772.00,98.19
769.00,98.09
766.00,97.94
763.00,97.81
760.00,97.69
757.00,97.50
754.00,97.36
751.00,97.11
748.00,96.96
745.00,96.72
742.00,96.37
739.00,95.92
736.00,95.03
733.00,93.96
730.00,93.02
727.00,93.04
724.00,93.34
721.00,93.40
718.00,93.27
715.00,92.75
712.00,92.43
709.00,92.19
706.00,91.96
703.00,91.48
700.00,90.86
697.00,90.04
694.00,89.15
691.00,88.27
688.00,87.74
685.00,87.72
682.00,87.75
679.00,87.76
676.00,88.13
673.00,88.74
670.00,88.90
667.00,89.53
664.00,89.91
661.00,90.01
658.00,90.59
655.00,90.95
652.00,91.29
649.00,91.80
646.00,92.05
643.00,92.36
640.00,92.76
637.00,92.83
634.00,92.62
631.00,92.72
628.00,93.00
625.00,93.16
622.00,93.09
619.00,93.12
616.00,93.12
613.00,93.40
610.00,93.77
607.00,93.03
604.00,92.33
601.00,90.08
598.00,91.35
595.00,91.56
592.00,91.46
589.00,91.57
586.00,91.21
583.00,89.53
580.00,88.89
577.00,87.85
574.00,88.83
571.00,88.03
568.00,87.98
565.00,89.04
562.00,89.58
559.00,90.58
556.00,90.28
553.00,90.82
550.00,90.90