File: raw_csv_data/Nylon - 9.csv
Created as New Dataset,79. Nylon Allied Signal Fibers Dyed
cm-1,%T
4000.00,98.50
3997.00,98.51
3994.00,98.48
3991.00,98.45
3988.00,98.46
3985.00,98.46
3982.00,98.49
3979.00,98.52
3976.00,98.45
3973.00,98.49
3970.00,98.50
3967.00,98.48
3964.00,98.46
3961.00,98.43
3958.00,98.47
3955.00,98.54
3952.00,98.53
3949.00,98.48
3946.00,98.49
3943.00,98.51
3940.00,98.53
3937.00,98.59
3934.00,98.55
3931.00,98.51
3928.00,98.50
3925.00,98.58
3922.00,98.60
3919.00,98.57
3916.00,98.48
3913.00,98.51
3910.00,98.58
3907.00,98.53
3904.00,98.52
3901.00,98.57
3898.00,98.52
3895.00,98.48
3892.00,98.54
3889.00,98.54
3886.00,98.53
3883.00,98.51
3880.00,98.57
3877.00,98.56
3874.00,98.53
3871.00,98.53
3868.00,98.57
3865.00,98.56
3862.00,98.55
3859.00,98.56
3856.00,98.49
3853.00,98.48
3850.00,98.48
3847.00,98.57
3844.00,98.59
3841.00,98.58
3838.00,98.53
3835.00,98.52
3832.00,98.57
3829.00,98.54
3826.00,98.55
3823.00,98.53
3820.00,98.59
3817.00,98.47
3814.00,98.45
3811.00,98.51
3808.00,98.55
3805.00,98.54
3802.00,98.47
3799.00,98.50
3796.00,98.52
3793.00,98.54
3790.00,98.51
3787.00,98.47
3784.00,98.48
3781.00,98.50
3778.00,98.50
3775.00,98.53
3772.00,98.56
3769.00,98.52
3766.00,98.52
3763.00,98.49
3760.00,98.50
3757.00,98.51
3754.00,98.44
3751.00,98.48
3748.00,98.48
3745.00,98.45
3742.00,98.46
3739.00,98.45
3736.00,98.48
3733.00,98.46
3730.00,98.50
3727.00,98.45
3724.00,98.43
3721.00,98.47
3718.00,98.48
3715.00,98.47
3712.00,98.48
3709.00,98.45
3706.00,98.48
3703.00,98.46
3700.00,98.49
3697.00,98.51
3694.00,98.52
3691.00,98.47
3688.00,98.42
3685.00,98.36
3682.00,98.34
3679.00,98.34
3676.00,98.40
3673.00,98.42
3670.00,98.37
3667.00,98.32
3664.00,98.32
3661.00,98.31
3658.00,98.29
3655.00,98.37
3652.00,98.37
3649.00,98.31
3646.00,98.26
3643.00,98.28
3640.00,98.28
3637.00,98.24
3634.00,98.34
3631.00,98.33
3628.00,98.26
3625.00,98.17
3622.00,98.22
3619.00,98.24
3616.00,98.22
3613.00,98.20
3610.00,98.19
3607.00,98.18
3604.00,98.12
3601.00,98.10
3598.00,98.11
3595.00,98.16
3592.00,98.16
3589.00,98.10
3586.00,98.06
3583.00,98.07
3580.00,98.04
3577.00,97.96
3574.00,97.99
3571.00,98.00
3568.00,97.97
3565.00,97.94
3562.00,97.94
3559.00,97.85
3556.00,97.79
3553.00,97.80
3550.00,97.84
3547.00,97.79
3544.00,97.73
3541.00,97.70
3538.00,97.71
3535.00,97.76
3532.00,97.73
3529.00,97.62
3526.00,97.61
3523.00,97.63
3520.00,97.56
3517.00,97.46
3514.00,97.49
3511.00,97.49
3508.00,97.45
3505.00,97.42
3502.00,97.43
3499.00,97.42
3496.00,97.42
3493.00,97.36
3490.00,97.35
3487.00,97.36
3484.00,97.35
3481.00,97.39
3478.00,97.34
3475.00,97.32
3472.00,97.34
3469.00,97.38
3466.00,97.30
3463.00,97.31
3460.00,97.29
3457.00,97.24
3454.00,97.24
3451.00,97.24
3448.00,97.25
3445.00,97.22
3442.00,97.19
3439.00,97.26
3436.00,97.24
3433.00,97.16
3430.00,97.15
3427.00,97.11
3424.00,97.08
3421.00,97.08
3418.00,97.02
3415.00,97.04
3412.00,97.03
3409.00,97.02
3406.00,96.97
3403.00,96.92
3400.00,96.85
3397.00,96.86
3394.00,96.79
3391.00,96.76
3388.00,96.71
3385.00,96.68
3382.00,96.62
3379.00,96.48
3376.00,96.43
3373.00,96.40
3370.00,96.33
3367.00,96.20
3364.00,96.11
3361.00,95.92
3358.00,95.82
3355.00,95.71
3352.00,95.55
3349.00,95.36
3346.00,95.10
3343.00,94.91
3340.00,94.63
3337.00,94.30
3334.00,93.86
3331.00,93.40
3328.00,92.80
3325.00,92.16
3322.00,91.46
3319.00,90.80
3316.00,90.08
3313.00,89.29
3310.00,88.31
3307.00,86.99
3304.00,85.59
3301.00,84.31
3298.00,83.44
3295.00,83.27
3292.00,83.67
3289.00,84.49
3286.00,85.57
3283.00,86.61
3280.00,87.54
3277.00,88.39
3274.00,89.06
3271.00,89.66
3268.00,90.21
3265.00,90.78
3262.00,91.34
3259.00,91.80
3256.00,92.19
3253.00,92.54
3250.00,92.90
3247.00,93.26
3244.00,93.59
3241.00,93.80
3238.00,94.05
3235.00,94.29
3232.00,94.52
3229.00,94.70
3226.00,94.83
3223.00,94.95
3220.00,95.08
3217.00,95.19
3214.00,95.26
3211.00,95.34
3208.00,95.34
3205.00,95.34
3202.00,95.40
3199.00,95.49
3196.00,95.56
3193.00,95.62
3190.00,95.64
3187.00,95.71
3184.00,95.78
3181.00,95.90
3178.00,96.01
3175.00,96.11
3172.00,96.26
3169.00,96.32
3166.00,96.46
3163.00,96.55
3160.00,96.61
3157.00,96.67
3154.00,96.73
3151.00,96.78
3148.00,96.82
3145.00,96.83
3142.00,96.86
3139.00,96.86
3136.00,96.89
3133.00,96.90
3130.00,96.88
3127.00,96.88
3124.00,96.82
3121.00,96.78
3118.00,96.69
3115.00,96.63
3112.00,96.62
3109.00,96.50
3106.00,96.37
3103.00,96.26
3100.00,96.25
3097.00,96.17
3094.00,96.02
3091.00,96.01
3088.00,95.93
3085.00,95.87
3082.00,95.79
3079.00,95.74
3076.00,95.68
3073.00,95.66
3070.00,95.64
3067.00,95.63
3064.00,95.60
3061.00,95.63
3058.00,95.72
3055.00,95.81
3052.00,96.01
3049.00,96.22
3046.00,96.37
3043.00,96.56
3040.00,96.71
3037.00,96.86
3034.00,96.96
3031.00,97.06
3028.00,97.12
3025.00,97.14
3022.00,97.15
3019.00,97.22
3016.00,97.27
3013.00,97.27
3010.00,97.25
3007.00,97.26
3004.00,97.27
3001.00,97.23
2998.00,97.21
2995.00,97.17
2992.00,97.10
2989.00,97.04
2986.00,96.86
2983.00,96.76
2980.00,96.63
2977.00,96.39
2974.00,96.05
2971.00,95.68
2968.00,95.24
2965.00,94.78
2962.00,94.29
2959.00,93.75
2956.00,92.93
2953.00,91.80
2950.00,90.44
2947.00,89.09
2944.00,88.21
2941.00,87.76
2938.00,87.42
2935.00,87.29
2932.00,87.59
2929.00,88.12
2926.00,88.66
2923.00,89.22
2920.00,89.85
2917.00,90.51
2914.00,91.08
2911.00,91.57
2908.00,91.88
2905.00,92.06
2902.00,92.11
2899.00,92.26
2896.00,92.65
2893.00,93.16
2890.00,93.54
2887.00,93.65
2884.00,93.47
2881.00,93.03
2878.00,92.33
2875.00,91.48
2872.00,90.81
2869.00,90.47
2866.00,90.39
2863.00,90.59
2860.00,90.89
2857.00,91.22
2854.00,91.60
2851.00,92.28
2848.00,93.27
2845.00,94.35
2842.00,95.13
2839.00,95.65
2836.00,96.01
2833.00,96.24
2830.00,96.35
2827.00,96.46
2824.00,96.51
2821.00,96.59
2818.00,96.69
2815.00,96.78
2812.00,96.85
2809.00,96.94
2806.00,97.03
2803.00,97.09
2800.00,97.10
2797.00,97.17
2794.00,97.19
2791.00,97.25
2788.00,97.26
2785.00,97.30
2782.00,97.33
2779.00,97.36
2776.00,97.41
2773.00,97.46
2770.00,97.47
2767.00,97.46
2764.00,97.50
2761.00,97.53
2758.00,97.53
2755.00,97.56
2752.00,97.51
2749.00,97.51
2746.00,97.53
2743.00,97.50
2740.00,97.55
2737.00,97.59
2734.00,97.64
2731.00,97.65
2728.00,97.67
2725.00,97.72
2722.00,97.77
2719.00,97.78
2716.00,97.81
2713.00,97.80
2710.00,97.82
2707.00,97.86
2704.00,97.87
2701.00,97.86
2698.00,97.85
2695.00,97.85
2692.00,97.89
2689.00,97.89
2686.00,97.90
2683.00,97.92
2680.00,97.89
2677.00,97.94
2674.00,97.97
2671.00,97.96
2668.00,97.95
2665.00,97.97
2662.00,97.97
2659.00,97.94
2656.00,97.94
2653.00,97.98
2650.00,97.96
2647.00,97.95
2644.00,97.91
2641.00,97.88
2638.00,97.88
2635.00,97.90
2632.00,97.92
2629.00,97.87
2626.00,97.87
2623.00,97.85
2620.00,97.81
2617.00,97.83
2614.00,97.84
2611.00,97.85
2608.00,97.87
2605.00,97.88
2602.00,97.86
2599.00,97.83
2596.00,97.77
2593.00,97.80
2590.00,97.85
2587.00,97.83
2584.00,97.82
2581.00,97.82
2578.00,97.83
2575.00,97.86
2572.00,97.82
2569.00,97.77
2566.00,97.79
2563.00,97.84
2560.00,97.80
2557.00,97.80
2554.00,97.83
2551.00,97.80
2548.00,97.78
2545.00,97.78
2542.00,97.84
2539.00,97.85
2536.00,97.84
2533.00,97.86
2530.00,97.88
2527.00,97.85
2524.00,97.91
2521.00,97.90
2518.00,97.88
2515.00,97.92
2512.00,97.92
2509.00,97.91
2506.00,97.89
2503.00,97.89
2500.00,97.92
2497.00,97.98
2494.00,97.98
2491.00,97.99
2488.00,97.92
2485.00,97.96
2482.00,97.99
2479.00,97.97
2476.00,98.00
2473.00,98.02
2470.00,97.95
2467.00,97.95
2464.00,98.02
2461.00,98.02
2458.00,97.99
2455.00,97.98
2452.00,98.05
2449.00,98.10
2446.00,98.10
2443.00,98.01
2440.00,98.00
2437.00,98.01
2434.00,98.05
2431.00,98.09
2428.00,98.10
2425.00,98.12
2422.00,98.17
2419.00,98.14
2416.00,98.07
2413.00,98.07
2410.00,98.12
2407.00,98.14
2404.00,98.16
2401.00,98.19
2398.00,98.15
2395.00,98.14
2392.00,98.12
2389.00,98.20
2386.00,98.23
2383.00,98.30
2380.00,98.33
2377.00,98.36
2374.00,98.34
2371.00,98.49
2368.00,98.45
2365.00,98.34
2362.00,98.46
2359.00,98.52
2356.00,98.41
2353.00,98.49
2350.00,98.47
2347.00,98.57
2344.00,98.53
2341.00,98.37
2338.00,98.48
2335.00,98.55
2332.00,98.50
2329.00,98.38
2326.00,98.42
2323.00,98.31
2320.00,98.25
2317.00,98.30
2314.00,98.29
2311.00,98.24
2308.00,98.22
2305.00,98.22
2302.00,98.17
2299.00,98.18
2296.00,98.18
2293.00,98.15
2290.00,98.11
2287.00,98.05
2284.00,98.06
2281.00,97.98
2278.00,97.96
2275.00,97.99
2272.00,98.02
2269.00,97.96
2266.00,97.97
2263.00,97.99
2260.00,97.93
2257.00,97.98
2254.00,97.93
2251.00,97.92
2248.00,97.99
2245.00,97.85
2242.00,97.84
2239.00,97.83
2236.00,97.87
2233.00,97.78
2230.00,97.76
2227.00,97.78
2224.00,97.71
2221.00,97.71
2218.00,97.66
2215.00,97.51
2212.00,97.61
2209.00,97.56
2206.00,97.58
2203.00,97.69
2200.00,97.68
2197.00,97.49
2194.00,97.41
2191.00,97.44
2188.00,97.39
2185.00,97.40
2182.00,97.46
2179.00,97.48
2176.00,97.35
2173.00,97.34
2170.00,97.36
2167.00,97.27
2164.00,97.25
2161.00,97.15
2158.00,97.40
2155.00,97.59
2152.00,97.50
2149.00,97.48
2146.00,97.70
2143.00,97.77
2140.00,97.80
2137.00,97.85
2134.00,97.94
2131.00,97.95
2128.00,97.96
2125.00,97.95
2122.00,98.03
2119.00,98.04
2116.00,97.99
2113.00,98.01
2110.00,97.95
2107.00,98.03
2104.00,98.02
2101.00,98.00
2098.00,97.92
2095.00,97.99
2092.00,98.10
2089.00,98.06
2086.00,98.01
2083.00,97.96
2080.00,97.98
2077.00,97.92
2074.00,97.90
2071.00,97.89
2068.00,97.89
2065.00,97.86
2062.00,97.81
2059.00,97.84
2056.00,97.84
2053.00,97.82
2050.00,97.74
2047.00,97.72
2044.00,97.62
2041.00,97.52
2038.00,97.53
2035.00,97.51
2032.00,97.38
2029.00,97.45
2026.00,97.59
2023.00,97.56
2020.00,97.44
2017.00,97.33
2014.00,97.58
2011.00,97.73
2008.00,97.67
2005.00,97.69
2002.00,97.71
1999.00,97.71
1996.00,97.60
1993.00,97.60
1990.00,97.58
1987.00,97.49
1984.00,97.50
1981.00,97.37
1978.00,97.58
1975.00,97.62
1972.00,97.63
1969.00,97.79
1966.00,97.91
1963.00,97.81
1960.00,97.90
1957.00,97.97
1954.00,97.92
1951.00,97.89
1948.00,97.95
1945.00,97.98
1942.00,98.07
1939.00,98.13
1936.00,98.10
1933.00,98.14
1930.00,98.22
1927.00,98.20
1924.00,98.08
1921.00,98.17
1918.00,98.24
1915.00,98.31
1912.00,98.27
1909.00,98.29
1906.00,98.36
1903.00,98.33
1900.00,98.29
1897.00,98.33
1894.00,98.36
1891.00,98.34
1888.00,98.37
1885.00,98.41
1882.00,98.45
1879.00,98.43
1876.00,98.45
1873.00,98.43
1870.00,98.30
1867.00,98.37
1864.00,98.40
1861.00,98.53
1858.00,98.49
1855.00,98.49
1852.00,98.48
1849.00,98.43
1846.00,98.49
1843.00,98.55
1840.00,98.45
1837.00,98.48
1834.00,98.53
1831.00,98.39
1828.00,98.42
1825.00,98.46
1822.00,98.55
1819.00,98.62
1816.00,98.62
1813.00,98.52
1810.00,98.52
1807.00,98.59
1804.00,98.57
1801.00,98.56
1798.00,98.56
1795.00,98.53
1792.00,98.55
1789.00,98.56
1786.00,98.57
1783.00,98.53
1780.00,98.48
1777.00,98.49
1774.00,98.54
1771.00,98.51
1768.00,98.48
1765.00,98.42
1762.00,98.36
1759.00,98.24
1756.00,98.29
1753.00,98.23
1750.00,97.97
1747.00,97.85
1744.00,97.68
1741.00,97.59
1738.00,97.48
1735.00,97.46
1732.00,97.13
1729.00,97.05
1726.00,96.98
1723.00,96.88
1720.00,96.89
1717.00,96.95
1714.00,96.86
1711.00,96.86
1708.00,96.80
1705.00,96.89
1702.00,97.03
1699.00,97.11
1696.00,97.06
1693.00,96.70
1690.00,96.47
1687.00,96.36
1684.00,95.68
1681.00,94.96
1678.00,94.43
1675.00,93.61
1672.00,92.57
1669.00,91.11
1666.00,89.51
1663.00,88.05
1660.00,86.77
1657.00,85.92
1654.00,84.92
1651.00,82.18
1648.00,80.20
1645.00,76.85
1642.00,74.10
1639.00,71.60
1636.00,70.03
1633.00,69.94
1630.00,71.31
1627.00,73.05
1624.00,74.78
1621.00,76.79
1618.00,79.02
1615.00,81.17
1612.00,82.76
1609.00,84.40
1606.00,86.12
1603.00,87.78
1600.00,89.16
1597.00,90.16
1594.00,90.88
1591.00,91.29
1588.00,91.43
1585.00,91.36
1582.00,91.05
1579.00,90.71
1576.00,90.00
1573.00,88.97
1570.00,88.01
1567.00,86.89
1564.00,85.92
1561.00,85.39
1558.00,83.42
1555.00,82.11
1552.00,80.32
1549.00,78.24
1546.00,76.44
1543.00,74.91
1540.00,74.11
1537.00,74.06
1534.00,74.98
1531.00,76.36
1528.00,77.84
1525.00,79.60
1522.00,81.33
1519.00,82.88
1516.00,84.43
1513.00,85.79
1510.00,86.88
1507.00,88.20
1504.00,89.31
1501.00,89.95
1498.00,90.80
1495.00,91.47
1492.00,91.66
1489.00,91.72
1486.00,91.08
1483.00,89.38
1480.00,87.72
1477.00,87.29
1474.00,88.07
1471.00,88.67
1468.00,87.71
1465.00,85.71
1462.00,85.42
1459.00,86.72
1456.00,87.99
1453.00,88.19
1450.00,88.48
1447.00,88.89
1444.00,89.08
1441.00,89.06
1438.00,89.05
1435.00,89.05
1432.00,89.37
1429.00,89.85
1426.00,89.65
1423.00,88.70
1420.00,87.48
1417.00,86.41
1414.00,86.80
1411.00,88.19
1408.00,89.85
1405.00,91.13
1402.00,91.86
1399.00,92.13
1396.00,92.21
1393.00,92.14
1390.00,91.81
1387.00,91.35
1384.00,90.72
1381.00,89.98
1378.00,89.23
1375.00,88.68
1372.00,88.61
1369.00,88.87
1366.00,89.22
1363.00,89.52
1360.00,89.91
1357.00,90.22
1354.00,90.54
1351.00,90.80
1348.00,90.98
1345.00,91.16
1342.00,91.35
1339.00,91.55
1336.00,91.76
1333.00,91.93
1330.00,92.13
1327.00,92.33
1324.00,92.45
1321.00,92.36
1318.00,92.24
1315.00,92.16
1312.00,92.08
1309.00,91.88
1306.00,91.61
1303.00,91.37
1300.00,91.27
1297.00,91.12
1294.00,90.77
1291.00,90.54
1288.00,90.59
1285.00,90.51
1282.00,90.25
1279.00,89.99
1276.00,89.83
1273.00,89.36
1270.00,88.25
1267.00,86.81
1264.00,86.08
1261.00,86.35
1258.00,87.10
1255.00,87.90
1252.00,88.61
1249.00,89.12
1246.00,89.41
1243.00,89.45
1240.00,89.45
1237.00,89.67
1234.00,90.26
1231.00,91.07
1228.00,91.84
1225.00,92.36
1222.00,92.43
1219.00,91.92
1216.00,91.16
1213.00,90.78
1210.00,90.83
1207.00,90.50
1204.00,89.29
1201.00,87.79
1198.00,88.06
1195.00,89.49
1192.00,90.64
1189.00,91.39
1186.00,91.89
1183.00,92.04
1180.00,91.84
1177.00,91.17
1174.00,90.25
1171.00,89.63
1168.00,89.72
1165.00,90.40
1162.00,91.30
1159.00,92.13
1156.00,92.83
1153.00,93.28
1150.00,93.72
1147.00,94.19
1144.00,94.59
1141.00,94.86
1138.00,95.13
1135.00,95.18
1132.00,95.05
1129.00,94.56
1126.00,93.96
1123.00,93.78
1120.00,93.71
1117.00,93.75
1114.00,93.85
1111.00,93.94
1108.00,94.08
1105.00,94.43
1102.00,94.82
1099.00,95.04
1096.00,95.18
1093.00,95.22
1090.00,95.38
1087.00,95.34
1084.00,95.27
1081.00,95.27
1078.00,95.15
1075.00,95.12
1072.00,95.14
1069.00,95.22
1066.00,95.46
1063.00,95.68
1060.00,95.85
1057.00,96.08
1054.00,96.34
1051.00,96.55
1048.00,96.58
1045.00,96.56
1042.00,96.52
1039.00,96.53
1036.00,96.46
1033.00,96.10
1030.00,95.76
1027.00,95.85
1024.00,96.20
1021.00,96.51
1018.00,96.69
1015.00,96.75
1012.00,96.81
1009.00,96.90
1006.00,96.97
1003.00,96.95
1000.00,96.97
997.00,96.93
994.00,96.90
991.00,96.74
988.00,96.53
985.00,96.42
982.00,96.40
979.00,96.32
976.00,96.24
973.00,96.16
970.00,95.98
967.00,95.83
964.00,95.44
961.00,94.89
958.00,94.86
955.00,95.27
952.00,95.37
949.00,95.56
946.00,95.97
943.00,96.29
940.00,96.49
937.00,96.44
934.00,96.15
931.00,95.65
928.00,95.48
925.00,95.88
922.00,96.39
919.00,96.69
916.00,96.82
913.00,96.95
910.00,97.00
907.00,97.10
904.00,97.26
901.00,97.32
898.00,97.32
895.00,97.35
892.00,97.36
889.00,97.44
886.00,97.45
883.00,97.42
880.00,97.43
877.00,97.46
874.00,97.41
871.00,97.44
868.00,97.48
865.00,97.53
862.00,97.53
859.00,97.49
856.00,97.47
853.00,97.44
850.00,97.35
847.00,97.29
844.00,97.28
841.00,97.03
838.00,96.67
835.00,96.15
832.00,96.16
829.00,96.58
826.00,96.86
823.00,96.87
820.00,96.90
817.00,96.82
814.00,96.62
811.00,96.57
808.00,96.47
805.00,96.40
802.00,96.22
799.00,96.07
796.00,95.97
793.00,95.78
790.00,95.67
787.00,95.61
784.00,95.39
781.00,95.28
778.00,95.15
775.00,94.96
772.00,94.81
769.00,94.64
766.00,94.46
763.00,94.43
760.00,94.19
757.00,94.01
754.00,93.81
751.00,93.44
748.00,93.28
745.00,93.00
742.00,92.50
739.00,91.91
736.00,91.06
733.00,89.54
730.00,88.42
727.00,88.53
724.00,88.87
721.00,88.96
718.00,88.77
715.00,88.30
712.00,87.69
709.00,87.34
706.00,87.00
703.00,86.51
700.00,85.68
697.00,84.72
694.00,83.57
691.00,82.54
688.00,81.80
685.00,81.75
682.00,81.91
679.00,82.17
676.00,82.49
673.00,83.10
670.00,83.61
667.00,84.32
664.00,84.89
661.00,85.43
658.00,85.96
655.00,86.67
652.00,86.98
649.00,87.20
646.00,87.47
643.00,87.99
640.00,88.06
637.00,88.17
634.00,88.40
631.00,88.05
628.00,88.18
625.00,88.71
622.00,88.62
619.00,88.26
616.00,88.51
613.00,88.23
610.00,88.76
607.00,88.91
604.00,88.23
601.00,86.10
598.00,87.00
595.00,87.26
592.00,87.30
589.00,86.65
586.00,85.95
583.00,84.86
580.00,82.04
577.00,80.41
574.00,82.08
571.00,82.69
568.00,82.37
565.00,82.90
562.00,84.32
559.00,86.41
556.00,86.23
553.00,86.50
550.00,87.23