File: raw_csv_data/Nylon - 11.csv
Created as New Dataset,81. Nylon Allied Signal Fibers
cm-1,%T
4000.00,99.02
3997.00,99.02
3994.00,99.03
3991.00,99.06
3988.00,99.03
3985.00,99.02
3982.00,99.03
3979.00,99.05
3976.00,99.04
3973.00,99.00
3970.00,99.06
3967.00,99.08
3964.00,99.10
3961.00,99.07
3958.00,99.07
3955.00,99.04
3952.00,99.09
3949.00,99.05
3946.00,99.05
3943.00,99.07
3940.00,99.07
3937.00,99.10
3934.00,99.13
3931.00,99.12
3928.00,99.12
3925.00,99.12
3922.00,99.14
3919.00,99.15
3916.00,99.09
3913.00,99.06
3910.00,99.09
3907.00,99.10
3904.00,99.07
3901.00,99.07
3898.00,98.96
3895.00,99.01
3892.00,99.05
3889.00,99.09
3886.00,99.07
3883.00,99.11
3880.00,99.08
3877.00,99.10
3874.00,99.08
3871.00,99.10
3868.00,99.06
3865.00,99.06
3862.00,99.06
3859.00,99.07
3856.00,99.18
3853.00,99.18
3850.00,99.21
3847.00,99.07
3844.00,99.12
3841.00,99.17
3838.00,99.19
3835.00,99.17
3832.00,99.10
3829.00,99.07
3826.00,99.04
3823.00,99.10
3820.00,99.08
3817.00,99.08
3814.00,99.03
3811.00,98.97
3808.00,99.04
3805.00,99.07
3802.00,99.04
3799.00,99.10
3796.00,99.01
3793.00,98.98
3790.00,98.94
3787.00,98.97
3784.00,99.00
3781.00,99.01
3778.00,98.99
3775.00,98.93
3772.00,98.99
3769.00,98.99
3766.00,99.00
3763.00,99.01
3760.00,98.97
3757.00,98.99
3754.00,99.06
3751.00,99.11
3748.00,99.11
3745.00,99.05
3742.00,99.09
3739.00,99.05
3736.00,99.09
3733.00,99.02
3730.00,98.96
3727.00,98.93
3724.00,99.02
3721.00,98.97
3718.00,98.97
3715.00,98.97
3712.00,99.04
3709.00,98.99
3706.00,98.86
3703.00,98.90
3700.00,98.92
3697.00,98.88
3694.00,98.92
3691.00,98.97
3688.00,98.92
3685.00,98.90
3682.00,98.82
3679.00,98.91
3676.00,98.93
3673.00,98.99
3670.00,98.94
3667.00,98.87
3664.00,98.82
3661.00,98.84
3658.00,98.80
3655.00,98.84
3652.00,98.85
3649.00,98.90
3646.00,98.84
3643.00,98.74
3640.00,98.74
3637.00,98.75
3634.00,98.78
3631.00,98.92
3628.00,98.92
3625.00,98.80
3622.00,98.78
3619.00,98.77
3616.00,98.85
3613.00,98.79
3610.00,98.77
3607.00,98.67
3604.00,98.64
3601.00,98.65
3598.00,98.69
3595.00,98.63
3592.00,98.62
3589.00,98.64
3586.00,98.61
3583.00,98.51
3580.00,98.53
3577.00,98.55
3574.00,98.54
3571.00,98.58
3568.00,98.57
3565.00,98.53
3562.00,98.44
3559.00,98.39
3556.00,98.35
3553.00,98.33
3550.00,98.34
3547.00,98.31
3544.00,98.31
3541.00,98.21
3538.00,98.19
3535.00,98.23
3532.00,98.18
3529.00,98.21
3526.00,98.13
3523.00,98.08
3520.00,98.08
3517.00,98.05
3514.00,98.03
3511.00,98.04
3508.00,98.05
3505.00,98.00
3502.00,97.94
3499.00,97.93
3496.00,97.90
3493.00,97.86
3490.00,97.80
3487.00,97.87
3484.00,97.85
3481.00,97.82
3478.00,97.90
3475.00,97.83
3472.00,97.84
3469.00,97.77
3466.00,97.72
3463.00,97.77
3460.00,97.79
3457.00,97.75
3454.00,97.73
3451.00,97.72
3448.00,97.72
3445.00,97.73
3442.00,97.66
3439.00,97.66
3436.00,97.60
3433.00,97.58
3430.00,97.63
3427.00,97.66
3424.00,97.66
3421.00,97.65
3418.00,97.58
3415.00,97.56
3412.00,97.58
3409.00,97.54
3406.00,97.49
3403.00,97.45
3400.00,97.42
3397.00,97.39
3394.00,97.41
3391.00,97.35
3388.00,97.32
3385.00,97.27
3382.00,97.22
3379.00,97.19
3376.00,97.13
3373.00,97.04
3370.00,96.97
3367.00,96.91
3364.00,96.77
3361.00,96.67
3358.00,96.52
3355.00,96.35
3352.00,96.14
3349.00,95.95
3346.00,95.77
3343.00,95.57
3340.00,95.29
3337.00,95.00
3334.00,94.67
3331.00,94.35
3328.00,94.01
3325.00,93.55
3322.00,93.07
3319.00,92.63
3316.00,92.12
3313.00,91.61
3310.00,91.08
3307.00,90.60
3304.00,90.10
3301.00,89.75
3298.00,89.56
3295.00,89.55
3292.00,89.63
3289.00,89.83
3286.00,90.08
3283.00,90.32
3280.00,90.59
3277.00,90.82
3274.00,91.04
3271.00,91.31
3268.00,91.62
3265.00,91.88
3262.00,92.17
3259.00,92.56
3256.00,92.90
3253.00,93.15
3250.00,93.51
3247.00,93.86
3244.00,94.14
3241.00,94.40
3238.00,94.64
3235.00,94.80
3232.00,95.02
3229.00,95.18
3226.00,95.35
3223.00,95.49
3220.00,95.60
3217.00,95.70
3214.00,95.75
3211.00,95.82
3208.00,95.91
3205.00,95.96
3202.00,96.06
3199.00,96.15
3196.00,96.17
3193.00,96.24
3190.00,96.33
3187.00,96.42
3184.00,96.53
3181.00,96.55
3178.00,96.69
3175.00,96.83
3172.00,96.89
3169.00,96.93
3166.00,97.05
3163.00,97.20
3160.00,97.23
3157.00,97.29
3154.00,97.32
3151.00,97.38
3148.00,97.39
3145.00,97.38
3142.00,97.41
3139.00,97.41
3136.00,97.36
3133.00,97.37
3130.00,97.38
3127.00,97.38
3124.00,97.35
3121.00,97.30
3118.00,97.23
3115.00,97.18
3112.00,97.09
3109.00,96.96
3106.00,96.84
3103.00,96.76
3100.00,96.62
3097.00,96.50
3094.00,96.37
3091.00,96.34
3088.00,96.30
3085.00,96.25
3082.00,96.21
3079.00,96.19
3076.00,96.20
3073.00,96.24
3070.00,96.31
3067.00,96.44
3064.00,96.54
3061.00,96.59
3058.00,96.71
3055.00,96.87
3052.00,96.98
3049.00,97.09
3046.00,97.24
3043.00,97.40
3040.00,97.45
3037.00,97.55
3034.00,97.68
3031.00,97.72
3028.00,97.74
3025.00,97.79
3022.00,97.86
3019.00,97.87
3016.00,97.89
3013.00,97.89
3010.00,97.89
3007.00,97.91
3004.00,97.91
3001.00,97.90
2998.00,97.93
2995.00,97.89
2992.00,97.82
2989.00,97.70
2986.00,97.63
2983.00,97.51
2980.00,97.31
2977.00,97.11
2974.00,96.84
2971.00,96.53
2968.00,96.19
2965.00,95.77
2962.00,95.32
2959.00,94.81
2956.00,94.23
2953.00,93.59
2950.00,92.82
2947.00,92.08
2944.00,91.46
2941.00,90.95
2938.00,90.53
2935.00,90.33
2932.00,90.30
2929.00,90.40
2926.00,90.56
2923.00,90.93
2920.00,91.43
2917.00,91.93
2914.00,92.40
2911.00,92.87
2908.00,93.21
2905.00,93.52
2902.00,93.79
2899.00,93.98
2896.00,94.22
2893.00,94.52
2890.00,94.75
2887.00,94.87
2884.00,94.88
2881.00,94.65
2878.00,94.28
2875.00,93.79
2872.00,93.27
2869.00,92.89
2866.00,92.58
2863.00,92.36
2860.00,92.32
2857.00,92.50
2854.00,92.89
2851.00,93.52
2848.00,94.36
2845.00,95.23
2842.00,95.96
2839.00,96.45
2836.00,96.78
2833.00,96.96
2830.00,97.11
2827.00,97.21
2824.00,97.28
2821.00,97.35
2818.00,97.42
2815.00,97.47
2812.00,97.57
2809.00,97.64
2806.00,97.65
2803.00,97.71
2800.00,97.77
2797.00,97.81
2794.00,97.85
2791.00,97.86
2788.00,97.88
2785.00,97.93
2782.00,97.98
2779.00,98.01
2776.00,98.02
2773.00,98.06
2770.00,98.11
2767.00,98.08
2764.00,98.06
2761.00,98.10
2758.00,98.12
2755.00,98.09
2752.00,98.12
2749.00,98.14
2746.00,98.15
2743.00,98.14
2740.00,98.17
2737.00,98.17
2734.00,98.16
2731.00,98.20
2728.00,98.20
2725.00,98.23
2722.00,98.25
2719.00,98.22
2716.00,98.25
2713.00,98.24
2710.00,98.27
2707.00,98.32
2704.00,98.32
2701.00,98.29
2698.00,98.30
2695.00,98.32
2692.00,98.32
2689.00,98.35
2686.00,98.36
2683.00,98.39
2680.00,98.39
2677.00,98.37
2674.00,98.39
2671.00,98.37
2668.00,98.38
2665.00,98.35
2662.00,98.37
2659.00,98.34
2656.00,98.32
2653.00,98.34
2650.00,98.33
2647.00,98.31
2644.00,98.27
2641.00,98.25
2638.00,98.27
2635.00,98.26
2632.00,98.27
2629.00,98.28
2626.00,98.24
2623.00,98.22
2620.00,98.19
2617.00,98.20
2614.00,98.23
2611.00,98.24
2608.00,98.21
2605.00,98.19
2602.00,98.18
2599.00,98.20
2596.00,98.21
2593.00,98.21
2590.00,98.16
2587.00,98.18
2584.00,98.20
2581.00,98.14
2578.00,98.11
2575.00,98.16
2572.00,98.18
2569.00,98.15
2566.00,98.12
2563.00,98.12
2560.00,98.15
2557.00,98.12
2554.00,98.12
2551.00,98.16
2548.00,98.19
2545.00,98.17
2542.00,98.15
2539.00,98.13
2536.00,98.07
2533.00,98.11
2530.00,98.11
2527.00,98.12
2524.00,98.15
2521.00,98.15
2518.00,98.16
2515.00,98.19
2512.00,98.23
2509.00,98.19
2506.00,98.18
2503.00,98.22
2500.00,98.25
2497.00,98.17
2494.00,98.14
2491.00,98.17
2488.00,98.18
2485.00,98.22
2482.00,98.20
2479.00,98.17
2476.00,98.14
2473.00,98.16
2470.00,98.16
2467.00,98.16
2464.00,98.18
2461.00,98.19
2458.00,98.17
2455.00,98.14
2452.00,98.12
2449.00,98.14
2446.00,98.19
2443.00,98.18
2440.00,98.20
2437.00,98.20
2434.00,98.19
2431.00,98.20
2428.00,98.23
2425.00,98.20
2422.00,98.26
2419.00,98.23
2416.00,98.21
2413.00,98.21
2410.00,98.25
2407.00,98.28
2404.00,98.26
2401.00,98.28
2398.00,98.30
2395.00,98.33
2392.00,98.37
2389.00,98.29
2386.00,98.32
2383.00,98.36
2380.00,98.47
2377.00,98.59
2374.00,98.68
2371.00,98.65
2368.00,98.61
2365.00,99.01
2362.00,98.83
2359.00,98.68
2356.00,98.63
2353.00,98.63
2350.00,98.71
2347.00,98.70
2344.00,98.82
2341.00,98.88
2338.00,98.80
2335.00,98.71
2332.00,98.59
2329.00,98.54
2326.00,98.50
2323.00,98.44
2320.00,98.39
2317.00,98.38
2314.00,98.37
2311.00,98.40
2308.00,98.34
2305.00,98.31
2302.00,98.32
2299.00,98.30
2296.00,98.23
2293.00,98.19
2290.00,98.16
2287.00,98.03
2284.00,97.94
2281.00,97.92
2278.00,97.95
2275.00,97.90
2272.00,97.89
2269.00,97.89
2266.00,97.83
2263.00,97.81
2260.00,97.70
2257.00,97.70
2254.00,97.78
2251.00,97.76
2248.00,97.72
2245.00,97.75
2242.00,97.79
2239.00,97.70
2236.00,97.70
2233.00,97.66
2230.00,97.51
2227.00,97.44
2224.00,97.37
2221.00,97.41
2218.00,97.40
2215.00,97.50
2212.00,97.43
2209.00,97.31
2206.00,97.36
2203.00,97.36
2200.00,97.45
2197.00,97.34
2194.00,97.23
2191.00,97.19
2188.00,97.16
2185.00,97.16
2182.00,97.15
2179.00,97.04
2176.00,97.18
2173.00,97.23
2170.00,97.05
2167.00,97.01
2164.00,96.95
2161.00,96.80
2158.00,97.15
2155.00,96.94
2152.00,97.26
2149.00,97.35
2146.00,97.49
2143.00,97.48
2140.00,97.50
2137.00,97.59
2134.00,97.70
2131.00,97.61
2128.00,97.72
2125.00,97.82
2122.00,97.75
2119.00,97.76
2116.00,97.71
2113.00,97.75
2110.00,97.79
2107.00,97.79
2104.00,97.76
2101.00,97.78
2098.00,97.77
2095.00,97.81
2092.00,97.78
2089.00,97.71
2086.00,97.78
2083.00,97.79
2080.00,97.71
2077.00,97.70
2074.00,97.67
2071.00,97.67
2068.00,97.69
2065.00,97.61
2062.00,97.53
2059.00,97.62
2056.00,97.63
2053.00,97.51
2050.00,97.32
2047.00,97.25
2044.00,97.28
2041.00,97.14
2038.00,97.19
2035.00,97.04
2032.00,97.15
2029.00,97.16
2026.00,97.11
2023.00,97.18
2020.00,97.34
2017.00,97.23
2014.00,97.25
2011.00,97.17
2008.00,97.30
2005.00,97.54
2002.00,97.52
1999.00,97.38
1996.00,97.46
1993.00,97.42
1990.00,97.49
1987.00,97.34
1984.00,97.23
1981.00,97.26
1978.00,97.29
1975.00,97.26
1972.00,97.25
1969.00,97.34
1966.00,97.38
1963.00,97.43
1960.00,97.64
1957.00,97.70
1954.00,97.70
1951.00,97.67
1948.00,97.75
1945.00,97.81
1942.00,97.78
1939.00,97.86
1936.00,97.87
1933.00,97.85
1930.00,97.94
1927.00,97.94
1924.00,97.94
1921.00,98.03
1918.00,97.97
1915.00,98.02
1912.00,97.99
1909.00,97.99
1906.00,98.04
1903.00,98.05
1900.00,98.09
1897.00,98.13
1894.00,98.09
1891.00,98.11
1888.00,98.09
1885.00,98.17
1882.00,98.13
1879.00,98.13
1876.00,98.20
1873.00,98.20
1870.00,98.19
1867.00,98.19
1864.00,98.20
1861.00,98.22
1858.00,98.20
1855.00,98.19
1852.00,98.22
1849.00,98.25
1846.00,98.27
1843.00,98.29
1840.00,98.26
1837.00,98.31
1834.00,98.34
1831.00,98.31
1828.00,98.27
1825.00,98.27
1822.00,98.30
1819.00,98.36
1816.00,98.38
1813.00,98.38
1810.00,98.38
1807.00,98.37
1804.00,98.37
1801.00,98.33
1798.00,98.35
1795.00,98.40
1792.00,98.43
1789.00,98.41
1786.00,98.38
1783.00,98.33
1780.00,98.31
1777.00,98.34
1774.00,98.40
1771.00,98.52
1768.00,98.37
1765.00,98.31
1762.00,98.31
1759.00,98.30
1756.00,98.26
1753.00,98.25
1750.00,98.22
1747.00,98.22
1744.00,98.19
1741.00,98.19
1738.00,98.15
1735.00,98.09
1732.00,98.14
1729.00,98.02
1726.00,98.02
1723.00,97.99
1720.00,98.04
1717.00,98.13
1714.00,98.02
1711.00,97.96
1708.00,97.93
1705.00,97.92
1702.00,97.93
1699.00,97.90
1696.00,97.85
1693.00,97.64
1690.00,97.32
1687.00,97.05
1684.00,96.61
1681.00,95.81
1678.00,95.13
1675.00,94.33
1672.00,93.56
1669.00,92.44
1666.00,91.24
1663.00,90.03
1660.00,88.85
1657.00,87.86
1654.00,86.78
1651.00,84.96
1648.00,83.31
1645.00,81.09
1642.00,79.32
1639.00,77.72
1636.00,76.81
1633.00,76.85
1630.00,77.51
1627.00,78.46
1624.00,79.52
1621.00,80.92
1618.00,82.47
1615.00,84.53
1612.00,85.83
1609.00,87.31
1606.00,88.72
1603.00,89.95
1600.00,90.96
1597.00,91.67
1594.00,92.17
1591.00,92.43
1588.00,92.44
1585.00,92.24
1582.00,91.86
1579.00,91.36
1576.00,90.64
1573.00,89.67
1570.00,88.55
1567.00,87.36
1564.00,86.31
1561.00,85.62
1558.00,84.31
1555.00,83.41
1552.00,82.50
1549.00,81.56
1546.00,80.79
1543.00,80.09
1540.00,79.85
1537.00,79.84
1534.00,80.15
1531.00,80.91
1528.00,81.77
1525.00,82.85
1522.00,84.03
1519.00,85.17
1516.00,86.16
1513.00,87.12
1510.00,88.02
1507.00,89.06
1504.00,90.04
1501.00,90.55
1498.00,91.24
1495.00,91.84
1492.00,92.22
1489.00,92.47
1486.00,92.33
1483.00,91.67
1480.00,90.70
1477.00,90.08
1474.00,90.02
1471.00,90.09
1468.00,89.47
1465.00,88.29
1462.00,87.81
1459.00,88.33
1456.00,89.13
1453.00,89.38
1450.00,89.59
1447.00,89.74
1444.00,89.70
1441.00,89.47
1438.00,89.23
1435.00,89.10
1432.00,89.39
1429.00,89.92
1426.00,90.17
1423.00,89.91
1420.00,89.49
1417.00,89.30
1414.00,89.79
1411.00,90.68
1408.00,91.60
1405.00,92.35
1402.00,92.84
1399.00,93.13
1396.00,93.17
1393.00,93.02
1390.00,92.81
1387.00,92.38
1384.00,91.95
1381.00,91.41
1378.00,90.86
1375.00,90.45
1372.00,90.26
1369.00,90.36
1366.00,90.56
1363.00,90.69
1360.00,90.94
1357.00,91.28
1354.00,91.56
1351.00,91.82
1348.00,92.00
1345.00,92.09
1342.00,92.23
1339.00,92.37
1336.00,92.47
1333.00,92.60
1330.00,92.71
1327.00,92.87
1324.00,92.91
1321.00,92.84
1318.00,92.71
1315.00,92.62
1312.00,92.47
1309.00,92.33
1306.00,92.22
1303.00,92.10
1300.00,91.99
1297.00,91.94
1294.00,91.91
1291.00,91.81
1288.00,91.62
1285.00,91.27
1282.00,90.88
1279.00,90.73
1276.00,90.81
1273.00,90.85
1270.00,90.51
1267.00,89.79
1264.00,89.16
1261.00,88.89
1258.00,89.09
1255.00,89.45
1252.00,89.87
1249.00,90.24
1246.00,90.49
1243.00,90.50
1240.00,90.41
1237.00,90.49
1234.00,90.89
1231.00,91.57
1228.00,92.30
1225.00,92.90
1222.00,93.09
1219.00,92.81
1216.00,92.36
1213.00,91.98
1210.00,91.75
1207.00,91.59
1204.00,91.11
1201.00,90.69
1198.00,90.91
1195.00,91.54
1192.00,92.26
1189.00,92.84
1186.00,93.25
1183.00,93.32
1180.00,92.98
1177.00,92.20
1174.00,91.19
1171.00,90.39
1168.00,90.49
1165.00,91.34
1162.00,92.37
1159.00,93.10
1156.00,93.65
1153.00,94.08
1150.00,94.40
1147.00,94.76
1144.00,95.06
1141.00,95.21
1138.00,95.30
1135.00,95.33
1132.00,95.15
1129.00,94.80
1126.00,94.32
1123.00,93.79
1120.00,93.44
1117.00,93.43
1114.00,93.49
1111.00,93.58
1108.00,93.84
1105.00,94.08
1102.00,94.42
1099.00,94.72
1096.00,94.89
1093.00,94.91
1090.00,94.96
1087.00,94.96
1084.00,94.78
1081.00,94.71
1078.00,94.66
1075.00,94.62
1072.00,94.56
1069.00,94.62
1066.00,94.79
1063.00,95.11
1060.00,95.23
1057.00,95.43
1054.00,95.63
1051.00,95.72
1048.00,95.88
1045.00,96.04
1042.00,96.04
1039.00,96.02
1036.00,95.92
1033.00,95.86
1030.00,95.81
1027.00,95.79
1024.00,95.90
1021.00,96.09
1018.00,96.17
1015.00,96.18
1012.00,96.18
1009.00,96.16
1006.00,96.12
1003.00,96.14
1000.00,96.13
997.00,96.07
994.00,95.99
991.00,95.86
988.00,95.77
985.00,95.69
982.00,95.52
979.00,95.41
976.00,95.40
973.00,95.36
970.00,95.35
967.00,95.36
964.00,95.26
961.00,95.12
958.00,95.13
955.00,95.35
952.00,95.47
949.00,95.61
946.00,95.84
943.00,96.03
940.00,96.14
937.00,96.15
934.00,95.99
931.00,95.86
928.00,95.79
925.00,95.90
922.00,96.11
919.00,96.25
916.00,96.32
913.00,96.38
910.00,96.47
907.00,96.54
904.00,96.59
901.00,96.64
898.00,96.70
895.00,96.70
892.00,96.72
889.00,96.65
886.00,96.71
883.00,96.77
880.00,96.80
877.00,96.83
874.00,96.84
871.00,96.91
868.00,96.90
865.00,96.86
862.00,96.82
859.00,96.87
856.00,96.83
853.00,96.84
850.00,96.79
847.00,96.64
844.00,96.53
841.00,96.44
838.00,96.28
835.00,96.06
832.00,95.98
829.00,96.11
826.00,96.26
823.00,96.29
820.00,96.30
817.00,96.26
814.00,96.12
811.00,96.06
808.00,95.97
805.00,95.80
802.00,95.65
799.00,95.49
796.00,95.39
793.00,95.27
790.00,95.11
787.00,94.96
784.00,94.87
781.00,94.61
778.00,94.46
775.00,94.26
772.00,94.12
769.00,94.07
766.00,93.86
763.00,93.73
760.00,93.58
757.00,93.35
754.00,93.17
751.00,92.83
748.00,92.55
745.00,92.15
742.00,91.79
739.00,91.32
736.00,90.68
733.00,89.77
730.00,89.00
727.00,88.75
724.00,88.93
721.00,89.01
718.00,88.96
715.00,88.74
712.00,88.52
709.00,88.42
706.00,88.27
703.00,87.99
700.00,87.57
697.00,87.23
694.00,86.75
691.00,86.41
688.00,86.18
685.00,85.97
682.00,85.88
679.00,86.00
676.00,86.14
673.00,86.41
670.00,86.80
667.00,87.11
664.00,87.17
661.00,87.32
658.00,87.79
655.00,87.99
652.00,88.27
649.00,88.46
646.00,88.69
643.00,88.90
640.00,88.80
637.00,89.03
634.00,89.15
631.00,89.45
628.00,89.46
625.00,89.13
622.00,88.93
619.00,89.39
616.00,88.94
613.00,88.42
610.00,88.77
607.00,89.16
604.00,88.49
601.00,87.60
598.00,88.28
595.00,88.09
592.00,87.84
589.00,87.96
586.00,87.26
583.00,87.46
580.00,86.59
577.00,85.19
574.00,84.64
571.00,84.08
568.00,84.87
565.00,85.67
562.00,86.62
559.00,88.27
556.00,88.07
553.00,86.08
550.00,87.03