File: raw_csv_data/Nylon - 14.csv
Created as New Dataset,92 Du Pont
cm-1,%T
4000.00,98.13
3997.00,98.15
3994.00,98.16
3991.00,98.16
3988.00,98.15
3985.00,98.17
3982.00,98.17
3979.00,98.16
3976.00,98.14
3973.00,98.15
3970.00,98.19
3967.00,98.20
3964.00,98.20
3961.00,98.16
3958.00,98.23
3955.00,98.20
3952.00,98.22
3949.00,98.23
3946.00,98.17
3943.00,98.16
3940.00,98.22
3937.00,98.21
3934.00,98.18
3931.00,98.16
3928.00,98.18
3925.00,98.15
3922.00,98.17
3919.00,98.17
3916.00,98.19
3913.00,98.22
3910.00,98.18
3907.00,98.23
3904.00,98.26
3901.00,98.24
3898.00,98.21
3895.00,98.23
3892.00,98.21
3889.00,98.28
3886.00,98.25
3883.00,98.23
3880.00,98.19
3877.00,98.20
3874.00,98.18
3871.00,98.16
3868.00,98.19
3865.00,98.23
3862.00,98.27
3859.00,98.21
3856.00,98.24
3853.00,98.22
3850.00,98.24
3847.00,98.20
3844.00,98.16
3841.00,98.22
3838.00,98.19
3835.00,98.18
3832.00,98.17
3829.00,98.18
3826.00,98.16
3823.00,98.20
3820.00,98.14
3817.00,98.09
3814.00,98.09
3811.00,98.05
3808.00,98.06
3805.00,98.16
3802.00,98.02
3799.00,98.05
3796.00,98.07
3793.00,98.08
3790.00,98.03
3787.00,98.00
3784.00,98.00
3781.00,97.97
3778.00,97.95
3775.00,97.95
3772.00,97.94
3769.00,97.95
3766.00,97.96
3763.00,97.97
3760.00,98.01
3757.00,97.98
3754.00,97.92
3751.00,97.96
3748.00,98.04
3745.00,97.90
3742.00,97.95
3739.00,97.91
3736.00,97.98
3733.00,97.91
3730.00,97.85
3727.00,97.79
3724.00,97.79
3721.00,97.80
3718.00,97.80
3715.00,97.81
3712.00,97.81
3709.00,97.81
3706.00,97.83
3703.00,97.84
3700.00,97.75
3697.00,97.74
3694.00,97.74
3691.00,97.81
3688.00,97.78
3685.00,97.74
3682.00,97.65
3679.00,97.70
3676.00,97.75
3673.00,97.75
3670.00,97.63
3667.00,97.63
3664.00,97.60
3661.00,97.53
3658.00,97.54
3655.00,97.53
3652.00,97.51
3649.00,97.50
3646.00,97.58
3643.00,97.53
3640.00,97.51
3637.00,97.51
3634.00,97.45
3631.00,97.54
3628.00,97.53
3625.00,97.46
3622.00,97.47
3619.00,97.34
3616.00,97.33
3613.00,97.33
3610.00,97.36
3607.00,97.24
3604.00,97.23
3601.00,97.21
3598.00,97.19
3595.00,97.20
3592.00,97.11
3589.00,97.12
3586.00,97.07
3583.00,97.04
3580.00,97.09
3577.00,97.05
3574.00,96.98
3571.00,96.95
3568.00,96.90
3565.00,96.90
3562.00,96.81
3559.00,96.76
3556.00,96.73
3553.00,96.65
3550.00,96.57
3547.00,96.56
3544.00,96.56
3541.00,96.51
3538.00,96.43
3535.00,96.37
3532.00,96.37
3529.00,96.30
3526.00,96.30
3523.00,96.23
3520.00,96.12
3517.00,96.08
3514.00,96.01
3511.00,96.00
3508.00,95.94
3505.00,95.94
3502.00,95.89
3499.00,95.86
3496.00,95.83
3493.00,95.80
3490.00,95.81
3487.00,95.76
3484.00,95.72
3481.00,95.67
3478.00,95.67
3475.00,95.64
3472.00,95.63
3469.00,95.59
3466.00,95.60
3463.00,95.66
3460.00,95.61
3457.00,95.61
3454.00,95.58
3451.00,95.59
3448.00,95.50
3445.00,95.42
3442.00,95.38
3439.00,95.40
3436.00,95.41
3433.00,95.39
3430.00,95.37
3427.00,95.30
3424.00,95.30
3421.00,95.31
3418.00,95.31
3415.00,95.30
3412.00,95.29
3409.00,95.23
3406.00,95.17
3403.00,95.11
3400.00,95.10
3397.00,95.04
3394.00,94.98
3391.00,94.95
3388.00,94.86
3385.00,94.75
3382.00,94.69
3379.00,94.56
3376.00,94.44
3373.00,94.30
3370.00,94.18
3367.00,94.03
3364.00,93.84
3361.00,93.61
3358.00,93.36
3355.00,93.05
3352.00,92.74
3349.00,92.37
3346.00,91.93
3343.00,91.50
3340.00,91.05
3337.00,90.49
3334.00,89.86
3331.00,89.12
3328.00,88.33
3325.00,87.37
3322.00,86.34
3319.00,85.19
3316.00,83.90
3313.00,82.56
3310.00,81.26
3307.00,80.09
3304.00,79.21
3301.00,78.69
3298.00,78.48
3295.00,78.52
3292.00,78.89
3289.00,79.44
3286.00,80.05
3283.00,80.67
3280.00,81.32
3277.00,81.89
3274.00,82.53
3271.00,83.18
3268.00,83.74
3265.00,84.35
3262.00,85.01
3259.00,85.61
3256.00,86.27
3253.00,86.90
3250.00,87.45
3247.00,88.04
3244.00,88.54
3241.00,89.03
3238.00,89.47
3235.00,89.89
3232.00,90.21
3229.00,90.55
3226.00,90.84
3223.00,91.06
3220.00,91.26
3217.00,91.45
3214.00,91.61
3211.00,91.72
3208.00,91.83
3205.00,91.95
3202.00,92.06
3199.00,92.18
3196.00,92.33
3193.00,92.45
3190.00,92.61
3187.00,92.78
3184.00,92.90
3181.00,93.09
3178.00,93.25
3175.00,93.35
3172.00,93.55
3169.00,93.73
3166.00,93.91
3163.00,94.08
3160.00,94.23
3157.00,94.35
3154.00,94.40
3151.00,94.47
3148.00,94.60
3145.00,94.66
3142.00,94.68
3139.00,94.70
3136.00,94.73
3133.00,94.71
3130.00,94.65
3127.00,94.60
3124.00,94.53
3121.00,94.51
3118.00,94.45
3115.00,94.33
3112.00,94.18
3109.00,93.99
3106.00,93.90
3103.00,93.73
3100.00,93.47
3097.00,93.27
3094.00,93.06
3091.00,92.91
3088.00,92.76
3085.00,92.70
3082.00,92.68
3079.00,92.63
3076.00,92.62
3073.00,92.66
3070.00,92.74
3067.00,92.83
3064.00,92.92
3061.00,93.06
3058.00,93.27
3055.00,93.52
3052.00,93.75
3049.00,94.00
3046.00,94.28
3043.00,94.54
3040.00,94.73
3037.00,94.86
3034.00,95.07
3031.00,95.23
3028.00,95.29
3025.00,95.37
3022.00,95.42
3019.00,95.50
3016.00,95.59
3013.00,95.65
3010.00,95.69
3007.00,95.71
3004.00,95.74
3001.00,95.71
2998.00,95.69
2995.00,95.63
2992.00,95.57
2989.00,95.51
2986.00,95.33
2983.00,95.09
2980.00,94.75
2977.00,94.35
2974.00,93.85
2971.00,93.22
2968.00,92.59
2965.00,91.93
2962.00,91.16
2959.00,90.34
2956.00,89.28
2953.00,87.93
2950.00,86.41
2947.00,84.88
2944.00,83.44
2941.00,82.10
2938.00,80.81
2935.00,79.91
2932.00,79.58
2929.00,79.85
2926.00,80.60
2923.00,81.57
2920.00,82.59
2917.00,83.48
2914.00,84.23
2911.00,84.89
2908.00,85.50
2905.00,86.17
2902.00,86.89
2899.00,87.56
2896.00,88.18
2893.00,88.64
2890.00,88.94
2887.00,88.97
2884.00,88.71
2881.00,88.16
2878.00,87.39
2875.00,86.63
2872.00,86.03
2869.00,85.50
2866.00,84.84
2863.00,84.19
2860.00,83.85
2857.00,84.17
2854.00,85.23
2851.00,86.79
2848.00,88.46
2845.00,90.00
2842.00,91.24
2839.00,92.05
2836.00,92.63
2833.00,92.98
2830.00,93.20
2827.00,93.40
2824.00,93.54
2821.00,93.75
2818.00,93.91
2815.00,94.07
2812.00,94.18
2809.00,94.29
2806.00,94.42
2803.00,94.54
2800.00,94.64
2797.00,94.75
2794.00,94.84
2791.00,94.93
2788.00,95.03
2785.00,95.08
2782.00,95.13
2779.00,95.20
2776.00,95.27
2773.00,95.28
2770.00,95.31
2767.00,95.35
2764.00,95.40
2761.00,95.40
2758.00,95.43
2755.00,95.49
2752.00,95.49
2749.00,95.51
2746.00,95.50
2743.00,95.49
2740.00,95.51
2737.00,95.58
2734.00,95.64
2731.00,95.68
2728.00,95.73
2725.00,95.75
2722.00,95.78
2719.00,95.85
2716.00,95.89
2713.00,95.87
2710.00,95.89
2707.00,95.96
2704.00,95.99
2701.00,95.96
2698.00,95.94
2695.00,95.99
2692.00,95.98
2689.00,96.01
2686.00,96.00
2683.00,96.04
2680.00,96.05
2677.00,96.08
2674.00,96.09
2671.00,96.09
2668.00,96.11
2665.00,96.12
2662.00,96.13
2659.00,96.06
2656.00,96.05
2653.00,96.01
2650.00,96.02
2647.00,95.99
2644.00,95.96
2641.00,95.95
2638.00,95.94
2635.00,95.92
2632.00,95.89
2629.00,95.84
2626.00,95.82
2623.00,95.82
2620.00,95.80
2617.00,95.78
2614.00,95.71
2611.00,95.69
2608.00,95.67
2605.00,95.63
2602.00,95.57
2599.00,95.55
2596.00,95.54
2593.00,95.55
2590.00,95.50
2587.00,95.50
2584.00,95.45
2581.00,95.50
2578.00,95.47
2575.00,95.46
2572.00,95.44
2569.00,95.47
2566.00,95.47
2563.00,95.48
2560.00,95.52
2557.00,95.51
2554.00,95.51
2551.00,95.46
2548.00,95.50
2545.00,95.51
2542.00,95.48
2539.00,95.48
2536.00,95.48
2533.00,95.50
2530.00,95.55
2527.00,95.57
2524.00,95.52
2521.00,95.48
2518.00,95.52
2515.00,95.54
2512.00,95.60
2509.00,95.58
2506.00,95.55
2503.00,95.61
2500.00,95.63
2497.00,95.62
2494.00,95.58
2491.00,95.55
2488.00,95.55
2485.00,95.64
2482.00,95.58
2479.00,95.53
2476.00,95.58
2473.00,95.60
2470.00,95.61
2467.00,95.62
2464.00,95.58
2461.00,95.59
2458.00,95.65
2455.00,95.67
2452.00,95.64
2449.00,95.64
2446.00,95.65
2443.00,95.68
2440.00,95.65
2437.00,95.71
2434.00,95.75
2431.00,95.74
2428.00,95.73
2425.00,95.73
2422.00,95.74
2419.00,95.76
2416.00,95.78
2413.00,95.80
2410.00,95.80
2407.00,95.87
2404.00,95.90
2401.00,95.95
2398.00,95.97
2395.00,95.98
2392.00,96.00
2389.00,96.03
2386.00,96.10
2383.00,96.13
2380.00,96.22
2377.00,96.37
2374.00,96.51
2371.00,96.61
2368.00,96.59
2365.00,96.22
2362.00,96.39
2359.00,96.64
2356.00,96.57
2353.00,96.55
2350.00,96.56
2347.00,96.52
2344.00,96.48
2341.00,96.49
2338.00,96.55
2335.00,96.45
2332.00,96.38
2329.00,96.38
2326.00,96.18
2323.00,96.07
2320.00,96.05
2317.00,96.12
2314.00,96.10
2311.00,96.00
2308.00,96.00
2305.00,95.88
2302.00,95.77
2299.00,95.74
2296.00,95.62
2293.00,95.50
2290.00,95.42
2287.00,95.25
2284.00,95.21
2281.00,95.15
2278.00,95.14
2275.00,95.06
2272.00,94.92
2269.00,94.84
2266.00,94.70
2263.00,94.67
2260.00,94.68
2257.00,94.52
2254.00,94.52
2251.00,94.46
2248.00,94.39
2245.00,94.51
2242.00,94.42
2239.00,94.30
2236.00,94.27
2233.00,94.20
2230.00,94.17
2227.00,94.09
2224.00,94.04
2221.00,94.01
2218.00,94.09
2215.00,94.07
2212.00,93.88
2209.00,93.77
2206.00,93.74
2203.00,93.69
2200.00,93.59
2197.00,93.53
2194.00,93.36
2191.00,93.44
2188.00,93.35
2185.00,93.16
2182.00,93.16
2179.00,93.20
2176.00,93.28
2173.00,93.03
2170.00,92.88
2167.00,92.52
2164.00,92.35
2161.00,92.14
2158.00,92.74
2155.00,93.15
2152.00,93.30
2149.00,93.48
2146.00,93.75
2143.00,93.90
2140.00,93.98
2137.00,94.25
2134.00,94.44
2131.00,94.56
2128.00,94.75
2125.00,94.81
2122.00,94.80
2119.00,94.74
2116.00,94.77
2113.00,94.68
2110.00,94.72
2107.00,94.72
2104.00,94.73
2101.00,94.67
2098.00,94.70
2095.00,94.85
2092.00,94.79
2089.00,94.67
2086.00,94.65
2083.00,94.68
2080.00,94.68
2077.00,94.63
2074.00,94.56
2071.00,94.37
2068.00,94.30
2065.00,94.31
2062.00,94.34
2059.00,94.26
2056.00,94.16
2053.00,94.14
2050.00,93.84
2047.00,93.79
2044.00,93.59
2041.00,93.37
2038.00,93.27
2035.00,93.24
2032.00,93.20
2029.00,93.22
2026.00,93.34
2023.00,93.28
2020.00,93.34
2017.00,93.32
2014.00,93.37
2011.00,93.32
2008.00,93.57
2005.00,93.74
2002.00,93.84
1999.00,94.00
1996.00,93.87
1993.00,93.85
1990.00,93.86
1987.00,93.82
1984.00,93.57
1981.00,93.20
1978.00,93.22
1975.00,93.53
1972.00,93.80
1969.00,93.96
1966.00,93.96
1963.00,93.98
1960.00,94.17
1957.00,94.29
1954.00,94.39
1951.00,94.48
1948.00,94.61
1945.00,94.81
1942.00,94.91
1939.00,94.95
1936.00,95.04
1933.00,95.16
1930.00,95.21
1927.00,95.21
1924.00,95.29
1921.00,95.39
1918.00,95.47
1915.00,95.54
1912.00,95.54
1909.00,95.55
1906.00,95.60
1903.00,95.69
1900.00,95.72
1897.00,95.75
1894.00,95.80
1891.00,95.81
1888.00,95.92
1885.00,95.93
1882.00,95.90
1879.00,95.92
1876.00,95.93
1873.00,96.02
1870.00,96.07
1867.00,96.02
1864.00,96.07
1861.00,96.09
1858.00,96.12
1855.00,96.19
1852.00,96.19
1849.00,96.18
1846.00,96.24
1843.00,96.27
1840.00,96.32
1837.00,96.35
1834.00,96.37
1831.00,96.41
1828.00,96.42
1825.00,96.44
1822.00,96.45
1819.00,96.48
1816.00,96.53
1813.00,96.56
1810.00,96.63
1807.00,96.61
1804.00,96.60
1801.00,96.64
1798.00,96.64
1795.00,96.64
1792.00,96.69
1789.00,96.72
1786.00,96.73
1783.00,96.73
1780.00,96.72
1777.00,96.71
1774.00,96.73
1771.00,96.69
1768.00,96.69
1765.00,96.65
1762.00,96.62
1759.00,96.58
1756.00,96.52
1753.00,96.43
1750.00,96.33
1747.00,96.28
1744.00,96.16
1741.00,96.04
1738.00,95.96
1735.00,95.96
1732.00,95.97
1729.00,95.97
1726.00,96.02
1723.00,96.08
1720.00,96.11
1717.00,96.11
1714.00,96.12
1711.00,96.09
1708.00,96.14
1705.00,96.11
1702.00,96.11
1699.00,96.09
1696.00,96.04
1693.00,95.90
1690.00,95.62
1687.00,95.23
1684.00,94.28
1681.00,93.21
1678.00,92.03
1675.00,90.55
1672.00,89.17
1669.00,87.23
1666.00,85.24
1663.00,82.81
1660.00,80.10
1657.00,77.76
1654.00,74.93
1651.00,70.61
1648.00,67.90
1645.00,63.20
1642.00,59.85
1639.00,56.94
1636.00,54.59
1633.00,53.68
1630.00,54.82
1627.00,57.05
1624.00,59.61
1621.00,62.64
1618.00,65.77
1615.00,69.74
1612.00,72.66
1609.00,75.38
1606.00,77.79
1603.00,80.03
1600.00,81.94
1597.00,83.37
1594.00,84.35
1591.00,84.94
1588.00,85.15
1585.00,85.02
1582.00,84.53
1579.00,83.81
1576.00,82.42
1573.00,81.00
1570.00,79.31
1567.00,77.35
1564.00,75.44
1561.00,73.95
1558.00,70.94
1555.00,69.33
1552.00,67.50
1549.00,65.49
1546.00,63.63
1543.00,61.43
1540.00,58.70
1537.00,56.69
1534.00,55.72
1531.00,55.56
1528.00,56.82
1525.00,59.08
1522.00,61.81
1519.00,64.83
1516.00,67.65
1513.00,70.14
1510.00,72.40
1507.00,74.63
1504.00,76.65
1501.00,78.12
1498.00,79.57
1495.00,80.89
1492.00,81.86
1489.00,82.70
1486.00,82.88
1483.00,82.07
1480.00,79.84
1477.00,77.40
1474.00,76.24
1471.00,76.90
1468.00,76.17
1465.00,74.29
1462.00,74.55
1459.00,75.98
1456.00,77.28
1453.00,78.16
1450.00,78.94
1447.00,79.31
1444.00,79.22
1441.00,78.91
1438.00,78.61
1435.00,78.62
1432.00,79.18
1429.00,79.93
1426.00,80.12
1423.00,79.46
1420.00,77.93
1417.00,76.29
1414.00,77.74
1411.00,80.60
1408.00,82.75
1405.00,83.97
1402.00,84.60
1399.00,84.86
1396.00,84.78
1393.00,84.29
1390.00,83.72
1387.00,83.03
1384.00,82.42
1381.00,81.69
1378.00,80.69
1375.00,79.49
1372.00,78.52
1369.00,78.35
1366.00,78.74
1363.00,79.27
1360.00,79.83
1357.00,80.52
1354.00,81.20
1351.00,81.81
1348.00,82.25
1345.00,82.15
1342.00,82.69
1339.00,83.59
1336.00,84.04
1333.00,84.27
1330.00,84.35
1327.00,84.45
1324.00,84.67
1321.00,84.87
1318.00,84.86
1315.00,84.63
1312.00,84.28
1309.00,83.88
1306.00,83.49
1303.00,83.17
1300.00,83.06
1297.00,82.96
1294.00,82.68
1291.00,82.23
1288.00,81.47
1285.00,80.24
1282.00,78.49
1279.00,76.40
1276.00,74.67
1273.00,74.01
1270.00,74.23
1267.00,74.95
1264.00,75.91
1261.00,76.85
1258.00,77.63
1255.00,78.23
1252.00,78.79
1249.00,79.21
1246.00,79.50
1243.00,79.72
1240.00,80.06
1237.00,80.39
1234.00,80.87
1231.00,81.52
1228.00,82.10
1225.00,82.26
1222.00,82.68
1219.00,83.42
1216.00,83.72
1213.00,83.68
1210.00,83.34
1207.00,82.38
1204.00,80.52
1201.00,77.90
1198.00,76.20
1195.00,77.06
1192.00,79.21
1189.00,80.71
1186.00,81.02
1183.00,80.40
1180.00,79.89
1177.00,80.43
1174.00,82.06
1171.00,83.68
1168.00,84.73
1165.00,85.45
1162.00,85.76
1159.00,85.74
1156.00,85.26
1153.00,84.24
1150.00,83.20
1147.00,82.62
1144.00,82.41
1141.00,82.25
1138.00,82.44
1135.00,83.44
1132.00,84.52
1129.00,85.10
1126.00,85.07
1123.00,84.63
1120.00,84.12
1117.00,83.92
1114.00,84.26
1111.00,84.75
1108.00,85.19
1105.00,85.70
1102.00,86.18
1099.00,86.55
1096.00,86.89
1093.00,87.16
1090.00,87.45
1087.00,87.64
1084.00,87.96
1081.00,88.21
1078.00,88.37
1075.00,88.50
1072.00,88.38
1069.00,88.10
1066.00,87.74
1063.00,87.54
1060.00,87.58
1057.00,87.90
1054.00,88.02
1051.00,88.12
1048.00,88.05
1045.00,88.02
1042.00,87.96
1039.00,87.95
1036.00,88.23
1033.00,88.46
1030.00,88.66
1027.00,88.85
1024.00,89.06
1021.00,89.18
1018.00,89.22
1015.00,89.25
1012.00,89.32
1009.00,89.41
1006.00,89.51
1003.00,89.66
1000.00,89.77
997.00,89.89
994.00,90.08
991.00,90.16
988.00,90.21
985.00,90.34
982.00,90.61
979.00,90.81
976.00,90.86
973.00,90.84
970.00,90.71
967.00,90.33
964.00,90.21
961.00,90.28
958.00,90.31
955.00,90.11
952.00,89.87
949.00,89.62
946.00,89.18
943.00,88.39
940.00,87.01
937.00,84.99
934.00,84.05
931.00,84.92
928.00,86.31
925.00,87.28
922.00,87.97
919.00,88.49
916.00,88.90
913.00,89.11
910.00,89.10
907.00,88.74
904.00,88.84
901.00,89.49
898.00,89.99
895.00,90.33
892.00,90.56
889.00,90.67
886.00,90.71
883.00,90.77
880.00,90.77
877.00,90.86
874.00,90.93
871.00,91.00
868.00,91.07
865.00,91.09
862.00,90.99
859.00,90.91
856.00,90.86
853.00,90.76
850.00,90.66
847.00,90.52
844.00,90.31
841.00,90.25
838.00,90.47
835.00,90.46
832.00,90.42
829.00,90.39
826.00,90.38
823.00,90.30
820.00,90.13
817.00,89.95
814.00,89.74
811.00,89.63
808.00,89.38
805.00,89.17
802.00,88.82
799.00,88.46
796.00,88.18
793.00,88.04
790.00,88.01
787.00,87.91
784.00,87.70
781.00,87.36
778.00,87.12
775.00,86.86
772.00,86.55
769.00,86.18
766.00,85.78
763.00,85.36
760.00,84.91
757.00,84.54
754.00,84.23
751.00,83.89
748.00,83.51
745.00,83.14
742.00,82.64
739.00,81.56
736.00,79.77
733.00,77.90
730.00,76.26
727.00,75.55
724.00,75.69
721.00,75.87
718.00,75.80
715.00,75.61
712.00,75.30
709.00,74.78
706.00,74.36
703.00,73.80
700.00,72.87
697.00,71.90
694.00,70.83
691.00,69.77
688.00,69.10
685.00,68.64
682.00,68.57
679.00,68.65
676.00,69.08
673.00,69.51
670.00,70.22
667.00,71.04
664.00,71.52
661.00,72.29
658.00,72.93
655.00,73.54
652.00,74.27
649.00,74.86
646.00,75.25
643.00,75.51
640.00,75.63
637.00,75.90
634.00,76.20
631.00,76.49
628.00,76.52
625.00,76.67
622.00,77.02
619.00,77.19
616.00,76.05
613.00,76.21
610.00,76.83
607.00,76.25
604.00,75.56
601.00,72.87
598.00,73.53
595.00,74.13
592.00,72.80
589.00,71.60
586.00,70.47
583.00,68.42
580.00,65.58
577.00,66.03
574.00,66.12
571.00,67.65
568.00,68.14
565.00,68.74
562.00,71.87
559.00,72.18
556.00,72.30
553.00,72.26
550.00,72.81