File: raw_csv_data/Nylon - 8.csv
Created as New Dataset,76 Nylon Allied Signal Fibers USA PA-6. 2-ply cabled and autoclave heat set yarn. 3 of 7 in a series of fiber processing techniques
cm-1,%T
4000.00,102.88
3997.00,102.88
3994.00,102.86
3991.00,102.83
3988.00,102.91
3985.00,102.87
3982.00,102.82
3979.00,102.86
3976.00,102.89
3973.00,102.89
3970.00,102.84
3967.00,102.92
3964.00,102.89
3961.00,102.83
3958.00,102.83
3955.00,102.81
3952.00,102.88
3949.00,102.88
3946.00,102.86
3943.00,102.85
3940.00,102.91
3937.00,102.94
3934.00,102.88
3931.00,102.91
3928.00,102.85
3925.00,102.85
3922.00,102.85
3919.00,102.82
3916.00,102.86
3913.00,102.88
3910.00,102.89
3907.00,102.80
3904.00,102.81
3901.00,102.77
3898.00,102.78
3895.00,102.79
3892.00,102.84
3889.00,102.81
3886.00,102.78
3883.00,102.81
3880.00,102.82
3877.00,102.80
3874.00,102.79
3871.00,102.66
3868.00,102.76
3865.00,102.76
3862.00,102.82
3859.00,102.82
3856.00,102.76
3853.00,102.69
3850.00,102.70
3847.00,102.83
3844.00,102.87
3841.00,102.75
3838.00,102.70
3835.00,102.69
3832.00,102.77
3829.00,102.77
3826.00,102.80
3823.00,102.72
3820.00,102.76
3817.00,102.72
3814.00,102.81
3811.00,102.84
3808.00,102.79
3805.00,102.82
3802.00,102.76
3799.00,102.72
3796.00,102.80
3793.00,102.84
3790.00,102.90
3787.00,102.81
3784.00,102.75
3781.00,102.78
3778.00,102.85
3775.00,102.88
3772.00,102.80
3769.00,102.79
3766.00,102.81
3763.00,102.78
3760.00,102.80
3757.00,102.82
3754.00,102.77
3751.00,102.71
3748.00,102.65
3745.00,102.63
3742.00,102.64
3739.00,102.68
3736.00,102.74
3733.00,102.69
3730.00,102.75
3727.00,102.74
3724.00,102.83
3721.00,102.86
3718.00,102.81
3715.00,102.74
3712.00,102.71
3709.00,102.73
3706.00,102.80
3703.00,102.77
3700.00,102.82
3697.00,102.84
3694.00,102.78
3691.00,102.75
3688.00,102.70
3685.00,102.77
3682.00,102.81
3679.00,102.85
3676.00,102.73
3673.00,102.66
3670.00,102.69
3667.00,102.74
3664.00,102.81
3661.00,102.81
3658.00,102.75
3655.00,102.79
3652.00,102.66
3649.00,102.65
3646.00,102.59
3643.00,102.65
3640.00,102.67
3637.00,102.72
3634.00,102.66
3631.00,102.57
3628.00,102.52
3625.00,102.53
3622.00,102.55
3619.00,102.59
3616.00,102.59
3613.00,102.62
3610.00,102.55
3607.00,102.53
3604.00,102.50
3601.00,102.51
3598.00,102.56
3595.00,102.53
3592.00,102.46
3589.00,102.47
3586.00,102.44
3583.00,102.43
3580.00,102.47
3577.00,102.42
3574.00,102.43
3571.00,102.38
3568.00,102.29
3565.00,102.27
3562.00,102.27
3559.00,102.27
3556.00,102.24
3553.00,102.24
3550.00,102.22
3547.00,102.19
3544.00,102.15
3541.00,102.10
3538.00,102.07
3535.00,102.00
3532.00,102.04
3529.00,102.03
3526.00,101.95
3523.00,101.97
3520.00,101.90
3517.00,101.87
3514.00,101.85
3511.00,101.91
3508.00,101.86
3505.00,101.76
3502.00,101.73
3499.00,101.75
3496.00,101.74
3493.00,101.74
3490.00,101.77
3487.00,101.73
3484.00,101.70
3481.00,101.64
3478.00,101.67
3475.00,101.66
3472.00,101.68
3469.00,101.61
3466.00,101.59
3463.00,101.58
3460.00,101.59
3457.00,101.60
3454.00,101.50
3451.00,101.53
3448.00,101.46
3445.00,101.41
3442.00,101.39
3439.00,101.48
3436.00,101.47
3433.00,101.37
3430.00,101.37
3427.00,101.37
3424.00,101.37
3421.00,101.39
3418.00,101.36
3415.00,101.33
3412.00,101.29
3409.00,101.26
3406.00,101.22
3403.00,101.19
3400.00,101.18
3397.00,101.15
3394.00,101.15
3391.00,101.11
3388.00,101.00
3385.00,100.98
3382.00,100.92
3379.00,100.89
3376.00,100.81
3373.00,100.67
3370.00,100.54
3367.00,100.49
3364.00,100.33
3361.00,100.28
3358.00,100.16
3355.00,99.93
3352.00,99.77
3349.00,99.54
3346.00,99.34
3343.00,99.14
3340.00,98.85
3337.00,98.53
3334.00,98.26
3331.00,97.97
3328.00,97.57
3325.00,97.18
3322.00,96.83
3319.00,96.45
3316.00,95.99
3313.00,95.51
3310.00,94.95
3307.00,94.44
3304.00,93.92
3301.00,93.56
3298.00,93.38
3295.00,93.39
3292.00,93.52
3289.00,93.79
3286.00,94.06
3283.00,94.41
3280.00,94.70
3277.00,94.99
3274.00,95.30
3271.00,95.57
3268.00,95.83
3265.00,96.09
3262.00,96.45
3259.00,96.73
3256.00,97.01
3253.00,97.28
3250.00,97.57
3247.00,97.86
3244.00,98.15
3241.00,98.37
3238.00,98.60
3235.00,98.85
3232.00,99.08
3229.00,99.18
3226.00,99.29
3223.00,99.46
3220.00,99.59
3217.00,99.68
3214.00,99.76
3211.00,99.79
3208.00,99.89
3205.00,99.95
3202.00,100.00
3199.00,100.03
3196.00,100.11
3193.00,100.19
3190.00,100.27
3187.00,100.38
3184.00,100.43
3181.00,100.49
3178.00,100.61
3175.00,100.70
3172.00,100.80
3169.00,100.85
3166.00,100.92
3163.00,101.01
3160.00,101.08
3157.00,101.14
3154.00,101.19
3151.00,101.24
3148.00,101.21
3145.00,101.25
3142.00,101.25
3139.00,101.24
3136.00,101.30
3133.00,101.30
3130.00,101.30
3127.00,101.25
3124.00,101.22
3121.00,101.14
3118.00,101.09
3115.00,101.05
3112.00,100.91
3109.00,100.90
3106.00,100.82
3103.00,100.70
3100.00,100.64
3097.00,100.51
3094.00,100.40
3091.00,100.28
3088.00,100.20
3085.00,100.16
3082.00,100.08
3079.00,100.09
3076.00,100.13
3073.00,100.13
3070.00,100.14
3067.00,100.16
3064.00,100.30
3061.00,100.39
3058.00,100.40
3055.00,100.57
3052.00,100.74
3049.00,100.84
3046.00,101.01
3043.00,101.14
3040.00,101.18
3037.00,101.28
3034.00,101.35
3031.00,101.42
3028.00,101.50
3025.00,101.50
3022.00,101.53
3019.00,101.60
3016.00,101.62
3013.00,101.58
3010.00,101.60
3007.00,101.62
3004.00,101.62
3001.00,101.60
2998.00,101.62
2995.00,101.54
2992.00,101.46
2989.00,101.42
2986.00,101.30
2983.00,101.06
2980.00,100.90
2977.00,100.71
2974.00,100.43
2971.00,100.07
2968.00,99.69
2965.00,99.30
2962.00,98.86
2959.00,98.39
2956.00,97.78
2953.00,97.05
2950.00,96.22
2947.00,95.35
2944.00,94.71
2941.00,94.28
2938.00,93.93
2935.00,93.65
2932.00,93.69
2929.00,93.90
2926.00,94.23
2923.00,94.66
2920.00,95.12
2917.00,95.62
2914.00,96.13
2911.00,96.52
2908.00,96.86
2905.00,97.13
2902.00,97.33
2899.00,97.54
2896.00,97.82
2893.00,98.08
2890.00,98.35
2887.00,98.52
2884.00,98.45
2881.00,98.18
2878.00,97.78
2875.00,97.30
2872.00,96.79
2869.00,96.42
2866.00,96.17
2863.00,96.05
2860.00,96.16
2857.00,96.41
2854.00,96.86
2851.00,97.42
2848.00,98.20
2845.00,99.07
2842.00,99.76
2839.00,100.19
2836.00,100.48
2833.00,100.65
2830.00,100.80
2827.00,100.91
2824.00,100.96
2821.00,101.02
2818.00,101.10
2815.00,101.18
2812.00,101.24
2809.00,101.26
2806.00,101.34
2803.00,101.39
2800.00,101.43
2797.00,101.45
2794.00,101.46
2791.00,101.51
2788.00,101.53
2785.00,101.56
2782.00,101.54
2779.00,101.57
2776.00,101.60
2773.00,101.62
2770.00,101.64
2767.00,101.63
2764.00,101.64
2761.00,101.69
2758.00,101.71
2755.00,101.70
2752.00,101.71
2749.00,101.77
2746.00,101.75
2743.00,101.75
2740.00,101.77
2737.00,101.78
2734.00,101.75
2731.00,101.78
2728.00,101.80
2725.00,101.79
2722.00,101.81
2719.00,101.83
2716.00,101.84
2713.00,101.84
2710.00,101.83
2707.00,101.84
2704.00,101.85
2701.00,101.89
2698.00,101.85
2695.00,101.86
2692.00,101.92
2689.00,101.88
2686.00,101.90
2683.00,101.92
2680.00,101.93
2677.00,101.93
2674.00,101.90
2671.00,101.91
2668.00,101.97
2665.00,101.96
2662.00,101.92
2659.00,101.89
2656.00,101.88
2653.00,101.93
2650.00,101.95
2647.00,101.97
2644.00,101.98
2641.00,101.95
2638.00,101.93
2635.00,101.94
2632.00,101.96
2629.00,101.97
2626.00,101.97
2623.00,101.98
2620.00,102.02
2617.00,101.98
2614.00,102.03
2611.00,102.04
2608.00,102.04
2605.00,102.00
2602.00,102.05
2599.00,102.07
2596.00,102.08
2593.00,102.10
2590.00,102.07
2587.00,102.05
2584.00,102.06
2581.00,102.10
2578.00,102.08
2575.00,102.12
2572.00,102.15
2569.00,102.13
2566.00,102.14
2563.00,102.09
2560.00,102.08
2557.00,102.13
2554.00,102.11
2551.00,102.15
2548.00,102.16
2545.00,102.11
2542.00,102.15
2539.00,102.10
2536.00,102.10
2533.00,102.13
2530.00,102.13
2527.00,102.10
2524.00,102.13
2521.00,102.12
2518.00,102.16
2515.00,102.17
2512.00,102.18
2509.00,102.19
2506.00,102.10
2503.00,102.15
2500.00,102.16
2497.00,102.13
2494.00,102.16
2491.00,102.22
2488.00,102.19
2485.00,102.20
2482.00,102.23
2479.00,102.13
2476.00,102.17
2473.00,102.20
2470.00,102.17
2467.00,102.15
2464.00,102.19
2461.00,102.12
2458.00,102.13
2455.00,102.10
2452.00,102.11
2449.00,102.16
2446.00,102.18
2443.00,102.14
2440.00,102.15
2437.00,102.16
2434.00,102.16
2431.00,102.17
2428.00,102.17
2425.00,102.16
2422.00,102.14
2419.00,102.18
2416.00,102.18
2413.00,102.19
2410.00,102.16
2407.00,102.14
2404.00,102.13
2401.00,102.13
2398.00,102.10
2395.00,102.14
2392.00,102.12
2389.00,102.11
2386.00,102.17
2383.00,102.15
2380.00,102.10
2377.00,102.12
2374.00,102.07
2371.00,102.05
2368.00,102.04
2365.00,102.08
2362.00,101.98
2359.00,102.00
2356.00,101.92
2353.00,101.76
2350.00,102.01
2347.00,101.89
2344.00,101.94
2341.00,101.87
2338.00,101.90
2335.00,101.78
2332.00,101.81
2329.00,101.91
2326.00,101.77
2323.00,101.77
2320.00,101.84
2317.00,101.92
2314.00,101.90
2311.00,101.90
2308.00,101.90
2305.00,101.95
2302.00,101.94
2299.00,101.99
2296.00,102.00
2293.00,102.05
2290.00,102.13
2287.00,102.11
2284.00,102.04
2281.00,102.00
2278.00,102.03
2275.00,102.09
2272.00,102.16
2269.00,102.16
2266.00,102.18
2263.00,102.20
2260.00,102.17
2257.00,102.09
2254.00,102.16
2251.00,102.21
2248.00,102.23
2245.00,102.28
2242.00,102.34
2239.00,102.41
2236.00,102.39
2233.00,102.29
2230.00,102.30
2227.00,102.35
2224.00,102.22
2221.00,102.25
2218.00,102.23
2215.00,102.26
2212.00,102.34
2209.00,102.37
2206.00,102.36
2203.00,102.47
2200.00,102.45
2197.00,102.45
2194.00,102.43
2191.00,102.46
2188.00,102.31
2185.00,102.54
2182.00,102.45
2179.00,102.38
2176.00,102.39
2173.00,102.45
2170.00,102.38
2167.00,102.36
2164.00,102.35
2161.00,102.47
2158.00,102.69
2155.00,102.77
2152.00,102.61
2149.00,102.41
2146.00,102.41
2143.00,102.31
2140.00,102.31
2137.00,102.26
2134.00,102.43
2131.00,102.40
2128.00,102.27
2125.00,102.25
2122.00,102.30
2119.00,102.10
2116.00,101.99
2113.00,102.07
2110.00,102.21
2107.00,102.18
2104.00,102.20
2101.00,102.20
2098.00,102.22
2095.00,102.18
2092.00,102.16
2089.00,102.15
2086.00,102.18
2083.00,102.18
2080.00,102.09
2077.00,102.17
2074.00,102.16
2071.00,102.15
2068.00,102.28
2065.00,102.25
2062.00,102.21
2059.00,102.21
2056.00,102.27
2053.00,102.36
2050.00,102.25
2047.00,102.29
2044.00,102.38
2041.00,102.37
2038.00,102.45
2035.00,102.38
2032.00,102.46
2029.00,102.49
2026.00,102.44
2023.00,102.49
2020.00,102.42
2017.00,102.48
2014.00,102.66
2011.00,102.48
2008.00,102.38
2005.00,102.56
2002.00,102.35
1999.00,102.32
1996.00,102.49
1993.00,102.41
1990.00,102.35
1987.00,102.24
1984.00,102.37
1981.00,102.39
1978.00,102.40
1975.00,102.31
1972.00,102.20
1969.00,102.28
1966.00,102.33
1963.00,102.33
1960.00,102.44
1957.00,102.54
1954.00,102.36
1951.00,102.26
1948.00,102.31
1945.00,102.35
1942.00,102.32
1939.00,102.17
1936.00,102.19
1933.00,102.19
1930.00,102.15
1927.00,102.15
1924.00,102.15
1921.00,102.15
1918.00,102.17
1915.00,102.20
1912.00,102.12
1909.00,101.97
1906.00,101.97
1903.00,102.01
1900.00,102.01
1897.00,102.09
1894.00,102.09
1891.00,102.08
1888.00,102.08
1885.00,102.13
1882.00,102.12
1879.00,102.02
1876.00,102.04
1873.00,102.07
1870.00,102.06
1867.00,102.04
1864.00,102.01
1861.00,102.07
1858.00,102.06
1855.00,102.04
1852.00,102.04
1849.00,102.07
1846.00,102.09
1843.00,102.04
1840.00,101.99
1837.00,102.04
1834.00,102.04
1831.00,101.99
1828.00,102.02
1825.00,101.99
1822.00,101.97
1819.00,102.02
1816.00,102.05
1813.00,102.03
1810.00,101.99
1807.00,102.02
1804.00,102.02
1801.00,102.01
1798.00,102.00
1795.00,101.97
1792.00,101.97
1789.00,101.94
1786.00,101.97
1783.00,101.92
1780.00,101.90
1777.00,101.92
1774.00,101.93
1771.00,101.92
1768.00,101.90
1765.00,101.89
1762.00,101.89
1759.00,101.82
1756.00,101.81
1753.00,101.77
1750.00,101.72
1747.00,101.66
1744.00,101.64
1741.00,101.57
1738.00,101.52
1735.00,101.46
1732.00,101.44
1729.00,101.46
1726.00,101.45
1723.00,101.44
1720.00,101.49
1717.00,101.46
1714.00,101.45
1711.00,101.46
1708.00,101.45
1705.00,101.43
1702.00,101.40
1699.00,101.34
1696.00,101.17
1693.00,100.97
1690.00,100.68
1687.00,100.38
1684.00,99.77
1681.00,99.05
1678.00,98.32
1675.00,97.48
1672.00,96.61
1669.00,95.45
1666.00,94.27
1663.00,93.10
1660.00,92.05
1657.00,91.11
1654.00,90.01
1651.00,88.54
1648.00,87.17
1645.00,85.48
1642.00,84.01
1639.00,82.77
1636.00,82.29
1633.00,82.68
1630.00,83.20
1627.00,84.05
1624.00,85.07
1621.00,86.60
1618.00,88.00
1615.00,90.03
1612.00,91.37
1609.00,92.74
1606.00,93.96
1603.00,94.97
1600.00,95.77
1597.00,96.30
1594.00,96.67
1591.00,96.87
1588.00,96.87
1585.00,96.69
1582.00,96.33
1579.00,95.89
1576.00,95.18
1573.00,94.39
1570.00,93.54
1567.00,92.56
1564.00,91.60
1561.00,90.79
1558.00,89.72
1555.00,88.86
1552.00,87.86
1549.00,86.80
1546.00,85.78
1543.00,84.81
1540.00,84.17
1537.00,84.06
1534.00,84.23
1531.00,84.86
1528.00,85.59
1525.00,86.57
1522.00,87.66
1519.00,88.83
1516.00,89.86
1513.00,90.84
1510.00,91.79
1507.00,92.70
1504.00,93.63
1501.00,94.29
1498.00,94.95
1495.00,95.62
1492.00,96.07
1489.00,96.35
1486.00,96.14
1483.00,95.38
1480.00,94.46
1477.00,94.02
1474.00,94.11
1471.00,94.23
1468.00,93.61
1465.00,92.62
1462.00,92.41
1459.00,92.95
1456.00,93.62
1453.00,93.83
1450.00,94.08
1447.00,94.30
1444.00,94.31
1441.00,94.18
1438.00,94.02
1435.00,94.02
1432.00,94.25
1429.00,94.64
1426.00,94.86
1423.00,94.63
1420.00,94.20
1417.00,94.01
1414.00,94.44
1411.00,95.35
1408.00,96.25
1405.00,96.96
1402.00,97.36
1399.00,97.59
1396.00,97.61
1393.00,97.45
1390.00,97.20
1387.00,96.81
1384.00,96.33
1381.00,95.80
1378.00,95.23
1375.00,94.80
1372.00,94.66
1369.00,94.76
1366.00,94.99
1363.00,95.28
1360.00,95.52
1357.00,95.78
1354.00,96.01
1351.00,96.24
1348.00,96.45
1345.00,96.61
1342.00,96.79
1339.00,96.94
1336.00,96.98
1333.00,97.07
1330.00,97.22
1327.00,97.31
1324.00,97.37
1321.00,97.34
1318.00,97.22
1315.00,97.12
1312.00,97.02
1309.00,96.91
1306.00,96.75
1303.00,96.63
1300.00,96.54
1297.00,96.48
1294.00,96.33
1291.00,96.21
1288.00,96.15
1285.00,95.99
1282.00,95.77
1279.00,95.64
1276.00,95.65
1273.00,95.50
1270.00,94.93
1267.00,94.04
1264.00,93.32
1261.00,93.23
1258.00,93.54
1255.00,93.94
1252.00,94.45
1249.00,94.80
1246.00,94.97
1243.00,95.05
1240.00,95.07
1237.00,95.20
1234.00,95.56
1231.00,96.13
1228.00,96.79
1225.00,97.35
1222.00,97.65
1219.00,97.45
1216.00,97.01
1213.00,96.67
1210.00,96.47
1207.00,96.24
1204.00,95.62
1201.00,94.88
1198.00,94.89
1195.00,95.73
1192.00,96.60
1189.00,97.24
1186.00,97.64
1183.00,97.81
1180.00,97.67
1177.00,97.05
1174.00,96.35
1171.00,95.85
1168.00,95.84
1165.00,96.38
1162.00,97.21
1159.00,97.93
1156.00,98.52
1153.00,98.91
1150.00,99.13
1147.00,99.47
1144.00,99.69
1141.00,99.82
1138.00,99.87
1135.00,99.87
1132.00,99.76
1129.00,99.40
1126.00,98.89
1123.00,98.51
1120.00,98.35
1117.00,98.32
1114.00,98.33
1111.00,98.49
1108.00,98.68
1105.00,98.95
1102.00,99.27
1099.00,99.47
1096.00,99.51
1093.00,99.57
1090.00,99.65
1087.00,99.62
1084.00,99.57
1081.00,99.61
1078.00,99.47
1075.00,99.44
1072.00,99.54
1069.00,99.60
1066.00,99.64
1063.00,99.69
1060.00,99.95
1057.00,100.15
1054.00,100.29
1051.00,100.44
1048.00,100.47
1045.00,100.67
1042.00,100.64
1039.00,100.62
1036.00,100.60
1033.00,100.50
1030.00,100.41
1027.00,100.50
1024.00,100.66
1021.00,100.74
1018.00,100.76
1015.00,100.80
1012.00,100.89
1009.00,100.88
1006.00,100.90
1003.00,100.93
1000.00,100.93
997.00,100.84
994.00,100.72
991.00,100.67
988.00,100.65
985.00,100.57
982.00,100.44
979.00,100.38
976.00,100.36
973.00,100.40
970.00,100.39
967.00,100.30
964.00,100.23
961.00,100.06
958.00,99.99
955.00,100.21
952.00,100.35
949.00,100.41
946.00,100.68
943.00,100.89
940.00,100.93
937.00,100.92
934.00,100.80
931.00,100.56
928.00,100.45
925.00,100.64
922.00,100.91
919.00,101.01
916.00,101.11
913.00,101.16
910.00,101.25
907.00,101.30
904.00,101.38
901.00,101.46
898.00,101.49
895.00,101.44
892.00,101.55
889.00,101.57
886.00,101.59
883.00,101.61
880.00,101.64
877.00,101.72
874.00,101.79
871.00,101.80
868.00,101.74
865.00,101.82
862.00,101.85
859.00,101.85
856.00,101.85
853.00,101.78
850.00,101.76
847.00,101.61
844.00,101.55
841.00,101.60
838.00,101.44
835.00,101.13
832.00,101.16
829.00,101.29
826.00,101.37
823.00,101.42
820.00,101.45
817.00,101.42
814.00,101.34
811.00,101.32
808.00,101.28
805.00,101.15
802.00,101.12
799.00,100.98
796.00,100.93
793.00,100.76
790.00,100.65
787.00,100.44
784.00,100.44
781.00,100.28
778.00,100.19
775.00,100.14
772.00,99.90
769.00,99.82
766.00,99.64
763.00,99.66
760.00,99.57
757.00,99.44
754.00,99.23
751.00,99.02
748.00,98.83
745.00,98.65
742.00,98.32
739.00,97.85
736.00,97.12
733.00,96.25
730.00,95.60
727.00,95.45
724.00,95.78
721.00,95.88
718.00,95.80
715.00,95.58
712.00,95.41
709.00,95.29
706.00,95.09
703.00,95.12
700.00,94.83
697.00,94.24
694.00,93.70
691.00,93.28
688.00,92.97
685.00,92.90
682.00,93.00
679.00,92.97
676.00,93.22
673.00,93.40
670.00,93.61
667.00,93.96
664.00,94.35
661.00,94.51
658.00,94.97
655.00,95.44
652.00,95.45
649.00,95.71
646.00,96.01
643.00,96.08
640.00,96.17
637.00,95.67
634.00,95.63
631.00,95.97
628.00,95.77
625.00,96.08
622.00,96.13
619.00,96.79
616.00,96.21
613.00,95.84
610.00,96.13
607.00,96.50
604.00,96.42
601.00,96.58
598.00,96.47
595.00,95.29
592.00,95.66
589.00,94.29
586.00,94.07
583.00,95.06
580.00,93.89
577.00,92.87
574.00,92.11
571.00,93.75
568.00,94.13
565.00,93.63
562.00,95.49
559.00,97.19
556.00,96.07
553.00,94.39
550.00,93.72