File: raw_csv_data/Nylon - 10.5.csv
Created as New Dataset,97. Du Pont (Bright Yellow)
cm-1,%T
4000.00,97.10
3997.00,97.05
3994.00,97.03
3991.00,97.04
3988.00,97.06
3985.00,97.05
3982.00,96.99
3979.00,96.99
3976.00,97.02
3973.00,97.05
3970.00,97.05
3967.00,97.05
3964.00,97.06
3961.00,97.05
3958.00,97.08
3955.00,97.06
3952.00,97.06
3949.00,97.10
3946.00,97.06
3943.00,97.02
3940.00,97.03
3937.00,97.02
3934.00,97.00
3931.00,96.99
3928.00,96.98
3925.00,96.99
3922.00,97.01
3919.00,97.00
3916.00,96.97
3913.00,96.98
3910.00,96.99
3907.00,97.02
3904.00,97.03
3901.00,97.03
3898.00,97.01
3895.00,97.03
3892.00,96.97
3889.00,97.02
3886.00,97.03
3883.00,97.01
3880.00,96.94
3877.00,96.96
3874.00,97.06
3871.00,97.04
3868.00,96.97
3865.00,97.01
3862.00,97.04
3859.00,97.01
3856.00,97.05
3853.00,96.99
3850.00,96.98
3847.00,96.92
3844.00,96.96
3841.00,96.95
3838.00,96.98
3835.00,96.98
3832.00,96.97
3829.00,96.97
3826.00,96.92
3823.00,96.92
3820.00,96.91
3817.00,96.91
3814.00,96.91
3811.00,96.90
3808.00,96.95
3805.00,96.91
3802.00,96.84
3799.00,96.94
3796.00,96.89
3793.00,96.92
3790.00,96.86
3787.00,96.80
3784.00,96.82
3781.00,96.81
3778.00,96.81
3775.00,96.80
3772.00,96.84
3769.00,96.79
3766.00,96.78
3763.00,96.75
3760.00,96.72
3757.00,96.73
3754.00,96.79
3751.00,96.78
3748.00,96.76
3745.00,96.71
3742.00,96.75
3739.00,96.76
3736.00,96.74
3733.00,96.69
3730.00,96.75
3727.00,96.68
3724.00,96.61
3721.00,96.67
3718.00,96.69
3715.00,96.71
3712.00,96.65
3709.00,96.62
3706.00,96.62
3703.00,96.57
3700.00,96.64
3697.00,96.64
3694.00,96.62
3691.00,96.66
3688.00,96.61
3685.00,96.58
3682.00,96.51
3679.00,96.55
3676.00,96.49
3673.00,96.58
3670.00,96.53
3667.00,96.51
3664.00,96.46
3661.00,96.41
3658.00,96.41
3655.00,96.39
3652.00,96.45
3649.00,96.45
3646.00,96.43
3643.00,96.34
3640.00,96.35
3637.00,96.42
3634.00,96.45
3631.00,96.42
3628.00,96.37
3625.00,96.38
3622.00,96.33
3619.00,96.30
3616.00,96.32
3613.00,96.24
3610.00,96.25
3607.00,96.23
3604.00,96.26
3601.00,96.25
3598.00,96.29
3595.00,96.26
3592.00,96.32
3589.00,96.22
3586.00,96.11
3583.00,96.12
3580.00,96.14
3577.00,96.13
3574.00,96.13
3571.00,96.08
3568.00,96.07
3565.00,96.04
3562.00,96.02
3559.00,96.02
3556.00,95.97
3553.00,95.94
3550.00,95.90
3547.00,95.86
3544.00,95.85
3541.00,95.84
3538.00,95.83
3535.00,95.81
3532.00,95.83
3529.00,95.77
3526.00,95.72
3523.00,95.62
3520.00,95.63
3517.00,95.65
3514.00,95.65
3511.00,95.57
3508.00,95.58
3505.00,95.50
3502.00,95.48
3499.00,95.49
3496.00,95.44
3493.00,95.42
3490.00,95.42
3487.00,95.41
3484.00,95.40
3481.00,95.44
3478.00,95.38
3475.00,95.35
3472.00,95.34
3469.00,95.33
3466.00,95.30
3463.00,95.33
3460.00,95.29
3457.00,95.30
3454.00,95.34
3451.00,95.29
3448.00,95.29
3445.00,95.31
3442.00,95.26
3439.00,95.25
3436.00,95.27
3433.00,95.25
3430.00,95.23
3427.00,95.21
3424.00,95.29
3421.00,95.27
3418.00,95.20
3415.00,95.16
3412.00,95.11
3409.00,95.10
3406.00,95.15
3403.00,95.09
3400.00,95.02
3397.00,95.07
3394.00,95.05
3391.00,95.07
3388.00,94.98
3385.00,95.01
3382.00,94.97
3379.00,94.91
3376.00,94.85
3373.00,94.77
3370.00,94.69
3367.00,94.62
3364.00,94.51
3361.00,94.42
3358.00,94.33
3355.00,94.24
3352.00,94.12
3349.00,93.92
3346.00,93.70
3343.00,93.47
3340.00,93.20
3337.00,92.89
3334.00,92.58
3331.00,92.10
3328.00,91.57
3325.00,91.00
3322.00,90.34
3319.00,89.55
3316.00,88.57
3313.00,87.50
3310.00,86.55
3307.00,85.72
3304.00,85.00
3301.00,84.50
3298.00,84.27
3295.00,84.30
3292.00,84.54
3289.00,84.98
3286.00,85.53
3283.00,86.08
3280.00,86.61
3277.00,87.16
3274.00,87.61
3271.00,87.96
3268.00,88.26
3265.00,88.59
3262.00,88.88
3259.00,89.22
3256.00,89.53
3253.00,89.83
3250.00,90.08
3247.00,90.35
3244.00,90.66
3241.00,90.88
3238.00,91.02
3235.00,91.28
3232.00,91.47
3229.00,91.61
3226.00,91.76
3223.00,91.90
3220.00,92.01
3217.00,92.08
3214.00,92.16
3211.00,92.26
3208.00,92.33
3205.00,92.35
3202.00,92.40
3199.00,92.47
3196.00,92.54
3193.00,92.62
3190.00,92.66
3187.00,92.74
3184.00,92.82
3181.00,92.85
3178.00,93.04
3175.00,93.13
3172.00,93.18
3169.00,93.29
3166.00,93.37
3163.00,93.48
3160.00,93.56
3157.00,93.64
3154.00,93.68
3151.00,93.77
3148.00,93.80
3145.00,93.83
3142.00,93.88
3139.00,93.96
3136.00,93.97
3133.00,93.97
3130.00,93.91
3127.00,93.95
3124.00,93.96
3121.00,93.94
3118.00,93.89
3115.00,93.87
3112.00,93.76
3109.00,93.70
3106.00,93.64
3103.00,93.56
3100.00,93.45
3097.00,93.36
3094.00,93.32
3091.00,93.25
3088.00,93.20
3085.00,93.15
3082.00,93.11
3079.00,93.09
3076.00,93.03
3073.00,92.99
3070.00,92.99
3067.00,92.98
3064.00,92.97
3061.00,93.02
3058.00,93.09
3055.00,93.19
3052.00,93.31
3049.00,93.46
3046.00,93.62
3043.00,93.75
3040.00,93.92
3037.00,94.03
3034.00,94.14
3031.00,94.24
3028.00,94.26
3025.00,94.33
3022.00,94.41
3019.00,94.49
3016.00,94.51
3013.00,94.56
3010.00,94.60
3007.00,94.64
3004.00,94.67
3001.00,94.69
2998.00,94.75
2995.00,94.79
2992.00,94.78
2989.00,94.79
2986.00,94.74
2983.00,94.62
2980.00,94.53
2977.00,94.40
2974.00,94.18
2971.00,93.95
2968.00,93.58
2965.00,93.20
2962.00,92.83
2959.00,92.38
2956.00,91.79
2953.00,91.03
2950.00,89.99
2947.00,88.86
2944.00,87.91
2941.00,87.09
2938.00,86.27
2935.00,85.59
2932.00,85.35
2929.00,85.58
2926.00,85.99
2923.00,86.51
2920.00,87.04
2917.00,87.59
2914.00,88.03
2911.00,88.42
2908.00,88.75
2905.00,89.12
2902.00,89.57
2899.00,90.04
2896.00,90.45
2893.00,90.78
2890.00,90.99
2887.00,91.02
2884.00,90.84
2881.00,90.46
2878.00,89.97
2875.00,89.52
2872.00,89.22
2869.00,89.00
2866.00,88.70
2863.00,88.28
2860.00,88.00
2857.00,88.06
2854.00,88.51
2851.00,89.23
2848.00,90.05
2845.00,90.81
2842.00,91.37
2839.00,91.80
2836.00,92.09
2833.00,92.28
2830.00,92.45
2827.00,92.57
2824.00,92.66
2821.00,92.74
2818.00,92.85
2815.00,92.96
2812.00,93.04
2809.00,93.15
2806.00,93.19
2803.00,93.26
2800.00,93.31
2797.00,93.35
2794.00,93.39
2791.00,93.46
2788.00,93.51
2785.00,93.53
2782.00,93.51
2779.00,93.56
2776.00,93.61
2773.00,93.59
2770.00,93.64
2767.00,93.70
2764.00,93.73
2761.00,93.74
2758.00,93.73
2755.00,93.72
2752.00,93.78
2749.00,93.75
2746.00,93.77
2743.00,93.82
2740.00,93.83
2737.00,93.82
2734.00,93.86
2731.00,93.90
2728.00,93.90
2725.00,93.92
2722.00,93.98
2719.00,94.00
2716.00,94.04
2713.00,94.06
2710.00,94.05
2707.00,94.10
2704.00,94.10
2701.00,94.11
2698.00,94.12
2695.00,94.11
2692.00,94.13
2689.00,94.11
2686.00,94.10
2683.00,94.12
2680.00,94.12
2677.00,94.12
2674.00,94.15
2671.00,94.16
2668.00,94.17
2665.00,94.16
2662.00,94.15
2659.00,94.14
2656.00,94.11
2653.00,94.09
2650.00,94.07
2647.00,94.03
2644.00,94.00
2641.00,94.01
2638.00,93.99
2635.00,93.91
2632.00,93.89
2629.00,93.88
2626.00,93.88
2623.00,93.85
2620.00,93.85
2617.00,93.81
2614.00,93.80
2611.00,93.77
2608.00,93.72
2605.00,93.69
2602.00,93.70
2599.00,93.69
2596.00,93.62
2593.00,93.62
2590.00,93.57
2587.00,93.56
2584.00,93.55
2581.00,93.52
2578.00,93.51
2575.00,93.57
2572.00,93.58
2569.00,93.54
2566.00,93.48
2563.00,93.50
2560.00,93.56
2557.00,93.57
2554.00,93.55
2551.00,93.59
2548.00,93.61
2545.00,93.57
2542.00,93.57
2539.00,93.60
2536.00,93.61
2533.00,93.56
2530.00,93.55
2527.00,93.55
2524.00,93.55
2521.00,93.61
2518.00,93.60
2515.00,93.62
2512.00,93.62
2509.00,93.62
2506.00,93.62
2503.00,93.60
2500.00,93.61
2497.00,93.62
2494.00,93.60
2491.00,93.62
2488.00,93.65
2485.00,93.63
2482.00,93.63
2479.00,93.66
2476.00,93.64
2473.00,93.63
2470.00,93.64
2467.00,93.63
2464.00,93.63
2461.00,93.61
2458.00,93.58
2455.00,93.62
2452.00,93.66
2449.00,93.64
2446.00,93.68
2443.00,93.70
2440.00,93.71
2437.00,93.69
2434.00,93.70
2431.00,93.72
2428.00,93.77
2425.00,93.77
2422.00,93.72
2419.00,93.76
2416.00,93.83
2413.00,93.83
2410.00,93.81
2407.00,93.82
2404.00,93.84
2401.00,93.89
2398.00,93.93
2395.00,93.95
2392.00,93.91
2389.00,94.00
2386.00,94.03
2383.00,94.09
2380.00,94.16
2377.00,94.23
2374.00,94.24
2371.00,94.25
2368.00,94.42
2365.00,94.38
2362.00,94.41
2359.00,94.38
2356.00,94.45
2353.00,94.44
2350.00,94.51
2347.00,94.47
2344.00,94.56
2341.00,94.58
2338.00,94.41
2335.00,94.42
2332.00,94.38
2329.00,94.37
2326.00,94.30
2323.00,94.27
2320.00,94.21
2317.00,94.14
2314.00,94.05
2311.00,94.04
2308.00,94.00
2305.00,93.90
2302.00,93.88
2299.00,93.84
2296.00,93.67
2293.00,93.63
2290.00,93.52
2287.00,93.36
2284.00,93.26
2281.00,93.24
2278.00,93.24
2275.00,93.22
2272.00,93.15
2269.00,93.08
2266.00,93.10
2263.00,93.03
2260.00,92.94
2257.00,92.93
2254.00,92.94
2251.00,92.91
2248.00,92.88
2245.00,92.80
2242.00,92.67
2239.00,92.72
2236.00,92.72
2233.00,92.52
2230.00,92.54
2227.00,92.45
2224.00,92.57
2221.00,92.51
2218.00,92.41
2215.00,92.35
2212.00,92.38
2209.00,92.28
2206.00,92.23
2203.00,92.07
2200.00,91.95
2197.00,92.14
2194.00,92.18
2191.00,91.98
2188.00,91.92
2185.00,91.88
2182.00,91.79
2179.00,91.70
2176.00,91.78
2173.00,91.80
2170.00,91.60
2167.00,91.53
2164.00,91.29
2161.00,91.16
2158.00,91.64
2155.00,91.90
2152.00,92.18
2149.00,92.25
2146.00,92.31
2143.00,92.40
2140.00,92.53
2137.00,92.69
2134.00,92.86
2131.00,93.04
2128.00,92.96
2125.00,93.05
2122.00,93.04
2119.00,93.10
2116.00,93.10
2113.00,93.10
2110.00,93.12
2107.00,93.13
2104.00,93.19
2101.00,93.09
2098.00,92.98
2095.00,93.13
2092.00,93.16
2089.00,93.11
2086.00,93.04
2083.00,93.06
2080.00,93.02
2077.00,92.97
2074.00,92.93
2071.00,92.94
2068.00,92.89
2065.00,92.80
2062.00,92.78
2059.00,92.74
2056.00,92.73
2053.00,92.57
2050.00,92.34
2047.00,92.27
2044.00,92.30
2041.00,92.17
2038.00,92.03
2035.00,91.91
2032.00,92.04
2029.00,92.00
2026.00,92.06
2023.00,91.99
2020.00,92.10
2017.00,92.24
2014.00,92.14
2011.00,92.25
2008.00,92.36
2005.00,92.45
2002.00,92.51
1999.00,92.56
1996.00,92.56
1993.00,92.64
1990.00,92.56
1987.00,92.48
1984.00,92.35
1981.00,92.17
1978.00,92.20
1975.00,92.33
1972.00,92.44
1969.00,92.50
1966.00,92.65
1963.00,92.74
1960.00,92.80
1957.00,92.89
1954.00,93.01
1951.00,93.11
1948.00,93.24
1945.00,93.35
1942.00,93.42
1939.00,93.53
1936.00,93.55
1933.00,93.58
1930.00,93.63
1927.00,93.72
1924.00,93.75
1921.00,93.89
1918.00,93.85
1915.00,93.91
1912.00,93.98
1909.00,93.96
1906.00,94.07
1903.00,94.11
1900.00,94.10
1897.00,94.18
1894.00,94.22
1891.00,94.24
1888.00,94.32
1885.00,94.36
1882.00,94.32
1879.00,94.37
1876.00,94.37
1873.00,94.43
1870.00,94.46
1867.00,94.52
1864.00,94.55
1861.00,94.56
1858.00,94.62
1855.00,94.65
1852.00,94.69
1849.00,94.69
1846.00,94.71
1843.00,94.75
1840.00,94.82
1837.00,94.89
1834.00,94.94
1831.00,94.93
1828.00,94.96
1825.00,94.97
1822.00,95.01
1819.00,95.09
1816.00,95.12
1813.00,95.17
1810.00,95.15
1807.00,95.22
1804.00,95.22
1801.00,95.26
1798.00,95.29
1795.00,95.30
1792.00,95.37
1789.00,95.38
1786.00,95.37
1783.00,95.44
1780.00,95.50
1777.00,95.54
1774.00,95.56
1771.00,95.56
1768.00,95.58
1765.00,95.59
1762.00,95.58
1759.00,95.56
1756.00,95.53
1753.00,95.53
1750.00,95.44
1747.00,95.32
1744.00,95.24
1741.00,95.17
1738.00,95.17
1735.00,95.23
1732.00,95.26
1729.00,95.29
1726.00,95.38
1723.00,95.44
1720.00,95.53
1717.00,95.58
1714.00,95.62
1711.00,95.68
1708.00,95.74
1705.00,95.79
1702.00,95.90
1699.00,96.09
1696.00,96.12
1693.00,96.13
1690.00,96.04
1687.00,95.92
1684.00,95.54
1681.00,95.12
1678.00,94.54
1675.00,93.86
1672.00,93.07
1669.00,91.86
1666.00,90.54
1663.00,88.91
1660.00,87.10
1657.00,85.49
1654.00,83.64
1651.00,80.73
1648.00,78.75
1645.00,75.81
1642.00,73.51
1639.00,71.12
1636.00,68.96
1633.00,67.97
1630.00,68.68
1627.00,70.50
1624.00,72.50
1621.00,74.64
1618.00,76.61
1615.00,79.12
1612.00,80.81
1609.00,82.27
1606.00,83.59
1603.00,84.93
1600.00,86.09
1597.00,86.98
1594.00,87.68
1591.00,88.17
1588.00,88.52
1585.00,88.61
1582.00,88.53
1579.00,88.31
1576.00,87.76
1573.00,87.10
1570.00,86.19
1567.00,85.08
1564.00,83.93
1561.00,83.05
1558.00,81.32
1555.00,80.15
1552.00,78.72
1549.00,77.03
1546.00,75.27
1543.00,73.07
1540.00,70.24
1537.00,67.64
1534.00,65.84
1531.00,64.81
1528.00,65.21
1525.00,66.66
1522.00,68.69
1519.00,70.99
1516.00,73.11
1513.00,74.86
1510.00,76.48
1507.00,78.19
1504.00,79.86
1501.00,80.90
1498.00,82.05
1495.00,83.10
1492.00,83.88
1489.00,84.60
1486.00,85.00
1483.00,84.68
1480.00,83.27
1477.00,81.44
1474.00,80.59
1471.00,81.58
1468.00,81.32
1465.00,80.04
1462.00,80.33
1459.00,81.38
1456.00,82.39
1453.00,82.93
1450.00,83.42
1447.00,83.73
1444.00,83.77
1441.00,83.64
1438.00,83.61
1435.00,83.74
1432.00,84.04
1429.00,84.46
1426.00,84.57
1423.00,84.21
1420.00,83.13
1417.00,81.49
1414.00,82.20
1411.00,84.10
1408.00,85.51
1405.00,86.32
1402.00,86.74
1399.00,86.86
1396.00,86.75
1393.00,86.40
1390.00,85.99
1387.00,85.60
1384.00,85.44
1381.00,85.10
1378.00,84.44
1375.00,83.47
1372.00,82.56
1369.00,82.42
1366.00,82.77
1363.00,83.27
1360.00,83.78
1357.00,84.25
1354.00,84.76
1351.00,85.23
1348.00,85.65
1345.00,86.04
1342.00,86.31
1339.00,86.50
1336.00,86.72
1333.00,86.84
1330.00,86.84
1327.00,86.89
1324.00,87.09
1321.00,87.27
1318.00,87.40
1315.00,87.37
1312.00,87.19
1309.00,86.98
1306.00,86.74
1303.00,86.60
1300.00,86.61
1297.00,86.67
1294.00,86.57
1291.00,86.34
1288.00,85.80
1285.00,84.80
1282.00,83.29
1279.00,81.32
1276.00,79.56
1273.00,78.66
1270.00,78.54
1267.00,78.98
1264.00,79.67
1261.00,80.38
1258.00,81.03
1255.00,81.56
1252.00,82.02
1249.00,82.39
1246.00,82.68
1243.00,82.98
1240.00,83.26
1237.00,83.52
1234.00,83.83
1231.00,84.15
1228.00,84.29
1225.00,84.16
1222.00,84.40
1219.00,85.11
1216.00,85.53
1213.00,85.70
1210.00,85.60
1207.00,84.87
1204.00,83.20
1201.00,80.53
1198.00,78.31
1195.00,78.69
1192.00,80.63
1189.00,82.21
1186.00,82.88
1183.00,82.77
1180.00,82.48
1177.00,82.83
1174.00,83.79
1171.00,84.79
1168.00,85.57
1165.00,86.18
1162.00,86.58
1159.00,86.70
1156.00,86.60
1153.00,86.30
1150.00,85.90
1147.00,85.69
1144.00,85.63
1141.00,85.49
1138.00,85.54
1135.00,86.29
1132.00,87.13
1129.00,87.67
1126.00,88.01
1123.00,88.29
1120.00,88.57
1117.00,88.80
1114.00,88.87
1111.00,88.94
1108.00,89.07
1105.00,89.20
1102.00,89.19
1099.00,89.23
1096.00,89.26
1093.00,89.27
1090.00,89.34
1087.00,89.38
1084.00,89.55
1081.00,89.76
1078.00,89.87
1075.00,89.92
1072.00,89.87
1069.00,89.65
1066.00,89.36
1063.00,89.30
1060.00,89.36
1057.00,89.52
1054.00,89.68
1051.00,89.67
1048.00,89.65
1045.00,89.48
1042.00,89.24
1039.00,89.28
1036.00,89.37
1033.00,89.51
1030.00,89.72
1027.00,89.92
1024.00,90.11
1021.00,90.17
1018.00,90.24
1015.00,90.34
1012.00,90.36
1009.00,90.48
1006.00,90.64
1003.00,90.77
1000.00,90.92
997.00,90.98
994.00,91.04
991.00,91.18
988.00,91.17
985.00,91.29
982.00,91.53
979.00,91.71
976.00,91.80
973.00,91.92
970.00,91.98
967.00,92.02
964.00,92.07
961.00,91.98
958.00,91.91
955.00,91.85
952.00,91.76
949.00,91.50
946.00,91.20
943.00,90.60
940.00,89.29
937.00,87.18
934.00,85.96
931.00,86.88
928.00,88.24
925.00,89.21
922.00,89.86
919.00,90.33
916.00,90.65
913.00,90.89
910.00,90.79
907.00,90.46
904.00,90.59
901.00,91.08
898.00,91.53
895.00,91.76
892.00,91.89
889.00,92.05
886.00,92.11
883.00,92.20
880.00,92.20
877.00,92.28
874.00,92.34
871.00,92.48
868.00,92.49
865.00,92.50
862.00,92.42
859.00,92.49
856.00,92.47
853.00,92.47
850.00,92.42
847.00,92.32
844.00,92.36
841.00,92.32
838.00,92.30
835.00,92.26
832.00,92.31
829.00,92.27
826.00,92.21
823.00,92.18
820.00,92.09
817.00,91.86
814.00,91.88
811.00,91.87
808.00,91.79
805.00,91.67
802.00,91.35
799.00,91.19
796.00,91.02
793.00,90.95
790.00,90.89
787.00,90.69
784.00,90.65
781.00,90.60
778.00,90.35
775.00,90.14
772.00,89.95
769.00,89.69
766.00,89.52
763.00,89.28
760.00,89.10
757.00,88.77
754.00,88.54
751.00,88.31
748.00,88.18
745.00,88.02
742.00,87.64
739.00,86.75
736.00,85.43
733.00,84.14
730.00,83.01
727.00,82.61
724.00,82.62
721.00,82.73
718.00,82.65
715.00,82.43
712.00,82.15
709.00,81.82
706.00,81.59
703.00,80.97
700.00,80.21
697.00,79.22
694.00,78.10
691.00,77.16
688.00,76.51
685.00,76.21
682.00,76.19
679.00,76.35
676.00,76.66
673.00,77.17
670.00,77.66
667.00,78.34
664.00,78.78
661.00,79.38
658.00,79.99
655.00,80.54
652.00,80.89
649.00,81.07
646.00,81.47
643.00,82.01
640.00,82.49
637.00,82.59
634.00,82.54
631.00,82.45
628.00,82.66
625.00,83.15
622.00,82.93
619.00,82.99
616.00,82.91
613.00,83.30
610.00,82.99
607.00,82.85
604.00,82.14
601.00,80.47
598.00,81.26
595.00,79.96
592.00,79.54
589.00,79.39
586.00,78.10
583.00,76.44
580.00,74.05
577.00,73.48
574.00,73.68
571.00,75.41
568.00,75.07
565.00,76.83
562.00,77.35
559.00,77.35
556.00,77.27
553.00,79.83
550.00,78.94