File: raw_csv_data/Nylon - 4.csv
Created as New Dataset,77 Nylon Allied Signal Fibers USA PA-6. Superba heat set 1190d. carpet yarn. No after-treatment. 4 of 7 in a series of fiber processing techniques
cm-1,%T
4000.00,103.11
3997.00,103.12
3994.00,103.08
3991.00,103.06
3988.00,103.04
3985.00,103.03
3982.00,103.05
3979.00,103.07
3976.00,103.08
3973.00,103.09
3970.00,103.08
3967.00,103.07
3964.00,103.09
3961.00,103.06
3958.00,103.07
3955.00,103.17
3952.00,103.17
3949.00,103.10
3946.00,103.07
3943.00,103.14
3940.00,103.17
3937.00,103.13
3934.00,103.16
3931.00,103.16
3928.00,103.19
3925.00,103.18
3922.00,103.16
3919.00,103.18
3916.00,103.13
3913.00,103.12
3910.00,103.04
3907.00,103.14
3904.00,103.34
3901.00,103.38
3898.00,103.18
3895.00,103.17
3892.00,103.13
3889.00,103.19
3886.00,103.23
3883.00,103.25
3880.00,103.18
3877.00,103.20
3874.00,103.20
3871.00,103.33
3868.00,103.29
3865.00,103.30
3862.00,103.24
3859.00,103.24
3856.00,103.59
3853.00,103.52
3850.00,103.50
3847.00,103.19
3844.00,103.20
3841.00,103.36
3838.00,103.40
3835.00,103.37
3832.00,103.21
3829.00,103.20
3826.00,103.19
3823.00,103.31
3820.00,103.28
3817.00,103.32
3814.00,103.15
3811.00,103.13
3808.00,103.17
3805.00,103.25
3802.00,103.23
3799.00,103.27
3796.00,103.09
3793.00,103.03
3790.00,102.98
3787.00,103.01
3784.00,102.99
3781.00,103.03
3778.00,102.98
3775.00,103.00
3772.00,103.05
3769.00,103.11
3766.00,103.11
3763.00,103.07
3760.00,103.07
3757.00,103.13
3754.00,103.26
3751.00,103.34
3748.00,103.43
3745.00,103.44
3742.00,103.37
3739.00,103.27
3736.00,103.34
3733.00,103.38
3730.00,103.17
3727.00,103.05
3724.00,103.10
3721.00,103.07
3718.00,102.94
3715.00,103.01
3712.00,103.10
3709.00,103.05
3706.00,102.97
3703.00,102.94
3700.00,102.93
3697.00,102.87
3694.00,102.94
3691.00,103.09
3688.00,103.03
3685.00,103.00
3682.00,102.89
3679.00,102.99
3676.00,103.10
3673.00,103.23
3670.00,103.07
3667.00,103.01
3664.00,102.81
3661.00,102.79
3658.00,102.89
3655.00,102.94
3652.00,103.10
3649.00,103.17
3646.00,103.03
3643.00,102.80
3640.00,102.74
3637.00,102.75
3634.00,102.77
3631.00,102.99
3628.00,102.93
3625.00,102.82
3622.00,102.78
3619.00,102.83
3616.00,102.85
3613.00,102.78
3610.00,102.84
3607.00,102.77
3604.00,102.62
3601.00,102.59
3598.00,102.59
3595.00,102.57
3592.00,102.53
3589.00,102.68
3586.00,102.65
3583.00,102.50
3580.00,102.51
3577.00,102.47
3574.00,102.45
3571.00,102.50
3568.00,102.48
3565.00,102.44
3562.00,102.36
3559.00,102.34
3556.00,102.31
3553.00,102.26
3550.00,102.22
3547.00,102.21
3544.00,102.22
3541.00,102.15
3538.00,102.12
3535.00,102.08
3532.00,102.06
3529.00,102.03
3526.00,102.00
3523.00,101.97
3520.00,101.96
3517.00,101.93
3514.00,101.85
3511.00,101.83
3508.00,101.80
3505.00,101.79
3502.00,101.76
3499.00,101.74
3496.00,101.67
3493.00,101.67
3490.00,101.69
3487.00,101.63
3484.00,101.67
3481.00,101.67
3478.00,101.63
3475.00,101.58
3472.00,101.52
3469.00,101.53
3466.00,101.54
3463.00,101.52
3460.00,101.47
3457.00,101.42
3454.00,101.41
3451.00,101.45
3448.00,101.45
3445.00,101.33
3442.00,101.31
3439.00,101.37
3436.00,101.34
3433.00,101.27
3430.00,101.26
3427.00,101.24
3424.00,101.24
3421.00,101.18
3418.00,101.12
3415.00,101.11
3412.00,101.06
3409.00,101.07
3406.00,101.06
3403.00,100.95
3400.00,100.93
3397.00,100.96
3394.00,100.89
3391.00,100.76
3388.00,100.70
3385.00,100.62
3382.00,100.62
3379.00,100.64
3376.00,100.54
3373.00,100.38
3370.00,100.27
3367.00,100.17
3364.00,99.98
3361.00,99.82
3358.00,99.69
3355.00,99.48
3352.00,99.30
3349.00,99.07
3346.00,98.84
3343.00,98.51
3340.00,98.21
3337.00,97.86
3334.00,97.57
3331.00,97.10
3328.00,96.62
3325.00,96.08
3322.00,95.45
3319.00,94.88
3316.00,94.29
3313.00,93.68
3310.00,92.95
3307.00,92.06
3304.00,91.09
3301.00,90.16
3298.00,89.47
3295.00,89.19
3292.00,89.24
3289.00,89.60
3286.00,90.17
3283.00,90.86
3280.00,91.53
3277.00,92.17
3274.00,92.68
3271.00,93.18
3268.00,93.67
3265.00,94.15
3262.00,94.64
3259.00,95.07
3256.00,95.51
3253.00,95.83
3250.00,96.19
3247.00,96.59
3244.00,96.95
3241.00,97.23
3238.00,97.53
3235.00,97.76
3232.00,98.02
3229.00,98.22
3226.00,98.39
3223.00,98.57
3220.00,98.65
3217.00,98.77
3214.00,98.90
3211.00,98.91
3208.00,98.94
3205.00,99.04
3202.00,99.14
3199.00,99.18
3196.00,99.24
3193.00,99.34
3190.00,99.42
3187.00,99.54
3184.00,99.64
3181.00,99.74
3178.00,99.87
3175.00,100.00
3172.00,100.05
3169.00,100.21
3166.00,100.32
3163.00,100.38
3160.00,100.53
3157.00,100.58
3154.00,100.61
3151.00,100.68
3148.00,100.72
3145.00,100.80
3142.00,100.81
3139.00,100.82
3136.00,100.82
3133.00,100.80
3130.00,100.81
3127.00,100.76
3124.00,100.72
3121.00,100.67
3118.00,100.62
3115.00,100.57
3112.00,100.46
3109.00,100.40
3106.00,100.28
3103.00,100.17
3100.00,100.02
3097.00,99.90
3094.00,99.79
3091.00,99.68
3088.00,99.56
3085.00,99.52
3082.00,99.48
3079.00,99.40
3076.00,99.37
3073.00,99.40
3070.00,99.40
3067.00,99.40
3064.00,99.48
3061.00,99.58
3058.00,99.67
3055.00,99.87
3052.00,100.04
3049.00,100.21
3046.00,100.44
3043.00,100.61
3040.00,100.76
3037.00,100.86
3034.00,100.94
3031.00,101.02
3028.00,101.11
3025.00,101.16
3022.00,101.21
3019.00,101.25
3016.00,101.25
3013.00,101.30
3010.00,101.30
3007.00,101.27
3004.00,101.24
3001.00,101.19
2998.00,101.19
2995.00,101.17
2992.00,101.12
2989.00,100.97
2986.00,100.79
2983.00,100.61
2980.00,100.39
2977.00,100.10
2974.00,99.72
2971.00,99.35
2968.00,98.90
2965.00,98.41
2962.00,97.91
2959.00,97.29
2956.00,96.46
2953.00,95.38
2950.00,94.20
2947.00,93.20
2944.00,92.46
2941.00,91.96
2938.00,91.62
2935.00,91.46
2932.00,91.63
2929.00,92.03
2926.00,92.45
2923.00,92.96
2920.00,93.55
2917.00,94.13
2914.00,94.68
2911.00,95.15
2908.00,95.49
2905.00,95.69
2902.00,95.85
2899.00,96.15
2896.00,96.54
2893.00,96.97
2890.00,97.26
2887.00,97.32
2884.00,97.20
2881.00,96.82
2878.00,96.22
2875.00,95.52
2872.00,94.92
2869.00,94.55
2866.00,94.42
2863.00,94.45
2860.00,94.57
2857.00,94.92
2854.00,95.42
2851.00,96.16
2848.00,97.18
2845.00,98.16
2842.00,98.93
2839.00,99.55
2836.00,99.89
2833.00,100.08
2830.00,100.19
2827.00,100.33
2824.00,100.43
2821.00,100.49
2818.00,100.54
2815.00,100.65
2812.00,100.75
2809.00,100.83
2806.00,100.87
2803.00,100.90
2800.00,100.95
2797.00,101.02
2794.00,101.07
2791.00,101.10
2788.00,101.14
2785.00,101.17
2782.00,101.20
2779.00,101.22
2776.00,101.26
2773.00,101.30
2770.00,101.33
2767.00,101.37
2764.00,101.37
2761.00,101.38
2758.00,101.42
2755.00,101.42
2752.00,101.37
2749.00,101.33
2746.00,101.38
2743.00,101.40
2740.00,101.42
2737.00,101.45
2734.00,101.46
2731.00,101.49
2728.00,101.53
2725.00,101.51
2722.00,101.55
2719.00,101.58
2716.00,101.58
2713.00,101.57
2710.00,101.58
2707.00,101.58
2704.00,101.59
2701.00,101.61
2698.00,101.63
2695.00,101.65
2692.00,101.65
2689.00,101.64
2686.00,101.64
2683.00,101.66
2680.00,101.67
2677.00,101.69
2674.00,101.70
2671.00,101.69
2668.00,101.68
2665.00,101.67
2662.00,101.65
2659.00,101.65
2656.00,101.62
2653.00,101.61
2650.00,101.61
2647.00,101.63
2644.00,101.60
2641.00,101.55
2638.00,101.55
2635.00,101.54
2632.00,101.54
2629.00,101.53
2626.00,101.50
2623.00,101.52
2620.00,101.52
2617.00,101.46
2614.00,101.45
2611.00,101.43
2608.00,101.48
2605.00,101.46
2602.00,101.44
2599.00,101.50
2596.00,101.50
2593.00,101.47
2590.00,101.46
2587.00,101.42
2584.00,101.43
2581.00,101.42
2578.00,101.42
2575.00,101.49
2572.00,101.52
2569.00,101.47
2566.00,101.44
2563.00,101.44
2560.00,101.47
2557.00,101.52
2554.00,101.47
2551.00,101.42
2548.00,101.48
2545.00,101.50
2542.00,101.48
2539.00,101.48
2536.00,101.46
2533.00,101.51
2530.00,101.49
2527.00,101.56
2524.00,101.52
2521.00,101.45
2518.00,101.53
2515.00,101.49
2512.00,101.51
2509.00,101.54
2506.00,101.50
2503.00,101.54
2500.00,101.57
2497.00,101.50
2494.00,101.49
2491.00,101.53
2488.00,101.52
2485.00,101.47
2482.00,101.51
2479.00,101.49
2476.00,101.48
2473.00,101.53
2470.00,101.52
2467.00,101.55
2464.00,101.53
2461.00,101.53
2458.00,101.51
2455.00,101.50
2452.00,101.45
2449.00,101.48
2446.00,101.51
2443.00,101.51
2440.00,101.48
2437.00,101.51
2434.00,101.51
2431.00,101.56
2428.00,101.52
2425.00,101.48
2422.00,101.54
2419.00,101.50
2416.00,101.51
2413.00,101.53
2410.00,101.59
2407.00,101.62
2404.00,101.61
2401.00,101.58
2398.00,101.58
2395.00,101.64
2392.00,101.62
2389.00,101.62
2386.00,101.65
2383.00,101.72
2380.00,101.76
2377.00,101.74
2374.00,101.79
2371.00,101.76
2368.00,101.78
2365.00,101.76
2362.00,101.87
2359.00,101.77
2356.00,101.73
2353.00,101.57
2350.00,101.65
2347.00,101.70
2344.00,101.80
2341.00,101.84
2338.00,101.60
2335.00,101.51
2332.00,101.54
2329.00,101.57
2326.00,101.42
2323.00,101.23
2320.00,101.26
2317.00,101.27
2314.00,101.20
2311.00,101.28
2308.00,101.28
2305.00,101.36
2302.00,101.39
2299.00,101.40
2296.00,101.36
2293.00,101.37
2290.00,101.21
2287.00,101.17
2284.00,101.17
2281.00,101.16
2278.00,101.14
2275.00,101.10
2272.00,101.15
2269.00,101.12
2266.00,101.10
2263.00,101.07
2260.00,101.06
2257.00,101.00
2254.00,101.00
2251.00,100.99
2248.00,100.90
2245.00,100.85
2242.00,100.90
2239.00,100.88
2236.00,100.89
2233.00,100.95
2230.00,100.89
2227.00,100.81
2224.00,100.74
2221.00,100.74
2218.00,100.84
2215.00,100.80
2212.00,100.79
2209.00,100.64
2206.00,100.57
2203.00,100.51
2200.00,100.45
2197.00,100.52
2194.00,100.58
2191.00,100.38
2188.00,100.38
2185.00,100.43
2182.00,100.40
2179.00,100.45
2176.00,100.54
2173.00,100.57
2170.00,100.41
2167.00,100.21
2164.00,100.15
2161.00,99.95
2158.00,100.34
2155.00,100.70
2152.00,100.56
2149.00,100.51
2146.00,100.74
2143.00,100.62
2140.00,100.64
2137.00,100.82
2134.00,100.97
2131.00,101.11
2128.00,101.03
2125.00,101.02
2122.00,101.03
2119.00,100.93
2116.00,100.94
2113.00,100.91
2110.00,100.89
2107.00,100.87
2104.00,100.94
2101.00,100.91
2098.00,100.93
2095.00,101.04
2092.00,100.93
2089.00,100.82
2086.00,100.84
2083.00,100.81
2080.00,100.81
2077.00,100.77
2074.00,100.66
2071.00,100.80
2068.00,100.80
2065.00,100.74
2062.00,100.81
2059.00,100.89
2056.00,100.73
2053.00,100.46
2050.00,100.52
2047.00,100.50
2044.00,100.39
2041.00,100.36
2038.00,100.33
2035.00,100.31
2032.00,100.38
2029.00,100.41
2026.00,100.58
2023.00,100.49
2020.00,100.37
2017.00,100.46
2014.00,100.26
2011.00,100.44
2008.00,100.53
2005.00,100.60
2002.00,100.61
1999.00,100.69
1996.00,100.60
1993.00,100.53
1990.00,100.46
1987.00,100.43
1984.00,100.37
1981.00,100.22
1978.00,100.25
1975.00,100.46
1972.00,100.47
1969.00,100.49
1966.00,100.67
1963.00,100.65
1960.00,100.67
1957.00,100.77
1954.00,100.90
1951.00,100.88
1948.00,100.76
1945.00,100.78
1942.00,100.94
1939.00,100.94
1936.00,100.97
1933.00,100.92
1930.00,100.89
1927.00,100.98
1924.00,100.97
1921.00,100.96
1918.00,100.92
1915.00,100.96
1912.00,100.98
1909.00,101.00
1906.00,100.99
1903.00,101.00
1900.00,101.06
1897.00,101.05
1894.00,101.03
1891.00,101.03
1888.00,101.03
1885.00,101.03
1882.00,101.09
1879.00,101.08
1876.00,101.07
1873.00,101.06
1870.00,101.08
1867.00,101.06
1864.00,101.07
1861.00,101.11
1858.00,101.10
1855.00,101.16
1852.00,101.19
1849.00,101.13
1846.00,101.13
1843.00,101.13
1840.00,101.12
1837.00,101.15
1834.00,101.12
1831.00,101.14
1828.00,101.11
1825.00,101.12
1822.00,101.15
1819.00,101.12
1816.00,101.13
1813.00,101.12
1810.00,101.14
1807.00,101.08
1804.00,101.10
1801.00,101.10
1798.00,101.12
1795.00,101.15
1792.00,101.09
1789.00,101.08
1786.00,101.05
1783.00,101.03
1780.00,101.03
1777.00,101.04
1774.00,101.09
1771.00,101.03
1768.00,100.89
1765.00,100.88
1762.00,100.87
1759.00,100.80
1756.00,100.75
1753.00,100.68
1750.00,100.63
1747.00,100.55
1744.00,100.42
1741.00,100.40
1738.00,100.37
1735.00,100.33
1732.00,100.29
1729.00,100.17
1726.00,100.18
1723.00,100.13
1720.00,100.15
1717.00,100.21
1714.00,100.10
1711.00,100.03
1708.00,100.01
1705.00,100.01
1702.00,100.00
1699.00,99.98
1696.00,99.86
1693.00,99.55
1690.00,99.20
1687.00,98.87
1684.00,98.16
1681.00,97.28
1678.00,96.46
1675.00,95.51
1672.00,94.57
1669.00,93.28
1666.00,91.87
1663.00,90.55
1660.00,89.30
1657.00,88.28
1654.00,87.14
1651.00,85.26
1648.00,83.39
1645.00,80.90
1642.00,78.60
1639.00,76.57
1636.00,75.45
1633.00,75.56
1630.00,76.46
1627.00,77.86
1624.00,79.33
1621.00,81.17
1618.00,83.04
1615.00,85.39
1612.00,86.92
1609.00,88.53
1606.00,90.12
1603.00,91.55
1600.00,92.71
1597.00,93.52
1594.00,94.08
1591.00,94.37
1588.00,94.38
1585.00,94.14
1582.00,93.78
1579.00,93.30
1576.00,92.58
1573.00,91.56
1570.00,90.52
1567.00,89.35
1564.00,88.28
1561.00,87.41
1558.00,85.95
1555.00,84.65
1552.00,83.25
1549.00,81.67
1546.00,80.29
1543.00,79.14
1540.00,78.59
1537.00,78.61
1534.00,79.04
1531.00,80.10
1528.00,81.24
1525.00,82.72
1522.00,84.14
1519.00,85.61
1516.00,86.92
1513.00,88.08
1510.00,89.13
1507.00,90.40
1504.00,91.48
1501.00,92.13
1498.00,92.89
1495.00,93.63
1492.00,94.00
1489.00,94.15
1486.00,93.54
1483.00,92.22
1480.00,91.00
1477.00,90.66
1474.00,91.07
1471.00,91.30
1468.00,90.31
1465.00,88.80
1462.00,88.56
1459.00,89.33
1456.00,90.25
1453.00,90.47
1450.00,90.75
1447.00,91.04
1444.00,91.08
1441.00,90.99
1438.00,90.82
1435.00,90.82
1432.00,91.14
1429.00,91.59
1426.00,91.60
1423.00,91.00
1420.00,90.20
1417.00,89.69
1414.00,90.09
1411.00,91.26
1408.00,92.61
1405.00,93.65
1402.00,94.24
1399.00,94.51
1396.00,94.54
1393.00,94.40
1390.00,94.11
1387.00,93.62
1384.00,93.00
1381.00,92.33
1378.00,91.65
1375.00,91.19
1372.00,91.09
1369.00,91.31
1366.00,91.61
1363.00,91.90
1360.00,92.19
1357.00,92.46
1354.00,92.74
1351.00,92.99
1348.00,93.22
1345.00,93.40
1342.00,93.59
1339.00,93.72
1336.00,93.86
1333.00,94.01
1330.00,94.16
1327.00,94.34
1324.00,94.41
1321.00,94.36
1318.00,94.21
1315.00,94.12
1312.00,94.02
1309.00,93.83
1306.00,93.65
1303.00,93.46
1300.00,93.35
1297.00,93.26
1294.00,93.00
1291.00,92.88
1288.00,92.85
1285.00,92.64
1282.00,92.36
1279.00,92.21
1276.00,92.11
1273.00,91.85
1270.00,91.07
1267.00,89.90
1264.00,89.24
1261.00,89.37
1258.00,89.92
1255.00,90.51
1252.00,91.09
1249.00,91.52
1246.00,91.71
1243.00,91.72
1240.00,91.65
1237.00,91.79
1234.00,92.28
1231.00,93.02
1228.00,93.77
1225.00,94.33
1222.00,94.52
1219.00,94.13
1216.00,93.46
1213.00,93.07
1210.00,93.04
1207.00,92.84
1204.00,91.96
1201.00,90.87
1198.00,91.16
1195.00,92.41
1192.00,93.43
1189.00,94.15
1186.00,94.59
1183.00,94.83
1180.00,94.54
1177.00,93.87
1174.00,93.02
1171.00,92.48
1168.00,92.52
1165.00,93.12
1162.00,94.06
1159.00,94.84
1156.00,95.44
1153.00,95.85
1150.00,96.21
1147.00,96.50
1144.00,96.74
1141.00,96.84
1138.00,96.94
1135.00,96.94
1132.00,96.73
1129.00,96.30
1126.00,95.64
1123.00,95.31
1120.00,95.11
1117.00,95.02
1114.00,95.07
1111.00,95.25
1108.00,95.43
1105.00,95.70
1102.00,95.91
1099.00,96.14
1096.00,96.21
1093.00,96.35
1090.00,96.38
1087.00,96.39
1084.00,96.37
1081.00,96.32
1078.00,96.30
1075.00,96.25
1072.00,96.21
1069.00,96.33
1066.00,96.48
1063.00,96.69
1060.00,96.90
1057.00,97.14
1054.00,97.35
1051.00,97.42
1048.00,97.59
1045.00,97.69
1042.00,97.64
1039.00,97.58
1036.00,97.48
1033.00,97.26
1030.00,97.10
1027.00,97.23
1024.00,97.49
1021.00,97.65
1018.00,97.75
1015.00,97.79
1012.00,97.88
1009.00,97.84
1006.00,97.86
1003.00,97.92
1000.00,97.94
997.00,97.90
994.00,97.74
991.00,97.57
988.00,97.45
985.00,97.39
982.00,97.30
979.00,97.18
976.00,97.10
973.00,97.05
970.00,97.03
967.00,96.89
964.00,96.65
961.00,96.33
958.00,96.29
955.00,96.53
952.00,96.69
949.00,96.94
946.00,97.28
943.00,97.52
940.00,97.62
937.00,97.53
934.00,97.33
931.00,97.02
928.00,96.89
925.00,97.20
922.00,97.55
919.00,97.71
916.00,97.90
913.00,97.99
910.00,98.05
907.00,98.15
904.00,98.23
901.00,98.14
898.00,98.27
895.00,98.28
892.00,98.27
889.00,98.29
886.00,98.34
883.00,98.33
880.00,98.41
877.00,98.53
874.00,98.53
871.00,98.41
868.00,98.48
865.00,98.55
862.00,98.60
859.00,98.52
856.00,98.43
853.00,98.41
850.00,98.35
847.00,98.27
844.00,98.17
841.00,97.97
838.00,97.72
835.00,97.31
832.00,97.24
829.00,97.56
826.00,97.70
823.00,97.81
820.00,97.84
817.00,97.77
814.00,97.65
811.00,97.56
808.00,97.55
805.00,97.39
802.00,97.22
799.00,97.08
796.00,97.00
793.00,96.92
790.00,96.71
787.00,96.54
784.00,96.42
781.00,96.19
778.00,96.11
775.00,95.95
772.00,95.80
769.00,95.66
766.00,95.42
763.00,95.23
760.00,95.06
757.00,94.91
754.00,94.73
751.00,94.42
748.00,94.22
745.00,93.84
742.00,93.48
739.00,92.86
736.00,92.13
733.00,91.11
730.00,90.11
727.00,90.03
724.00,90.26
721.00,90.30
718.00,90.16
715.00,89.67
712.00,89.27
709.00,89.05
706.00,88.81
703.00,88.49
700.00,88.01
697.00,87.31
694.00,86.58
691.00,86.17
688.00,85.60
685.00,85.59
682.00,85.69
679.00,85.76
676.00,85.96
673.00,86.25
670.00,86.82
667.00,87.07
664.00,87.36
661.00,87.97
658.00,88.42
655.00,88.97
652.00,89.17
649.00,89.09
646.00,89.21
643.00,89.70
640.00,90.05
637.00,90.36
634.00,90.23
631.00,90.47
628.00,90.28
625.00,90.43
622.00,90.35
619.00,89.99
616.00,90.07
613.00,90.80
610.00,90.33
607.00,90.30
604.00,90.14
601.00,88.70
598.00,88.70
595.00,89.71
592.00,88.96
589.00,88.95
586.00,88.11
583.00,87.14
580.00,85.34
577.00,85.18
574.00,85.10
571.00,85.46
568.00,86.15
565.00,86.58
562.00,87.28
559.00,88.06
556.00,88.46
553.00,87.83
550.00,87.43