File: raw_csv_data/Nylon - 17.csv
Created as New Dataset,91 Du Pont
cm-1,%T
4000.00,99.43
3997.00,99.39
3994.00,99.38
3991.00,99.41
3988.00,99.43
3985.00,99.41
3982.00,99.37
3979.00,99.36
3976.00,99.41
3973.00,99.45
3970.00,99.44
3967.00,99.44
3964.00,99.44
3961.00,99.44
3958.00,99.48
3955.00,99.47
3952.00,99.45
3949.00,99.47
3946.00,99.42
3943.00,99.40
3940.00,99.41
3937.00,99.45
3934.00,99.40
3931.00,99.41
3928.00,99.41
3925.00,99.41
3922.00,99.43
3919.00,99.45
3916.00,99.44
3913.00,99.43
3910.00,99.44
3907.00,99.42
3904.00,99.43
3901.00,99.35
3898.00,99.42
3895.00,99.45
3892.00,99.39
3889.00,99.40
3886.00,99.40
3883.00,99.34
3880.00,99.38
3877.00,99.38
3874.00,99.49
3871.00,99.45
3868.00,99.40
3865.00,99.35
3862.00,99.40
3859.00,99.50
3856.00,99.48
3853.00,99.44
3850.00,99.35
3847.00,99.39
3844.00,99.45
3841.00,99.40
3838.00,99.39
3835.00,99.31
3832.00,99.32
3829.00,99.33
3826.00,99.44
3823.00,99.35
3820.00,99.33
3817.00,99.28
3814.00,99.26
3811.00,99.32
3808.00,99.36
3805.00,99.37
3802.00,99.29
3799.00,99.23
3796.00,99.30
3793.00,99.34
3790.00,99.31
3787.00,99.26
3784.00,99.24
3781.00,99.21
3778.00,99.23
3775.00,99.23
3772.00,99.30
3769.00,99.29
3766.00,99.20
3763.00,99.19
3760.00,99.20
3757.00,99.23
3754.00,99.25
3751.00,99.25
3748.00,99.20
3745.00,99.13
3742.00,99.14
3739.00,99.14
3736.00,99.14
3733.00,99.14
3730.00,99.19
3727.00,99.13
3724.00,99.02
3721.00,99.09
3718.00,99.14
3715.00,99.14
3712.00,99.12
3709.00,99.03
3706.00,99.04
3703.00,99.00
3700.00,99.09
3697.00,99.15
3694.00,99.10
3691.00,99.05
3688.00,98.99
3685.00,99.01
3682.00,98.99
3679.00,98.98
3676.00,98.91
3673.00,98.96
3670.00,98.95
3667.00,98.94
3664.00,98.92
3661.00,98.91
3658.00,98.90
3655.00,98.94
3652.00,98.92
3649.00,98.84
3646.00,98.85
3643.00,98.86
3640.00,98.89
3637.00,98.93
3634.00,98.93
3631.00,98.84
3628.00,98.85
3625.00,98.81
3622.00,98.80
3619.00,98.75
3616.00,98.70
3613.00,98.71
3610.00,98.71
3607.00,98.69
3604.00,98.68
3601.00,98.68
3598.00,98.70
3595.00,98.64
3592.00,98.66
3589.00,98.57
3586.00,98.55
3583.00,98.58
3580.00,98.60
3577.00,98.59
3574.00,98.52
3571.00,98.50
3568.00,98.42
3565.00,98.39
3562.00,98.38
3559.00,98.39
3556.00,98.33
3553.00,98.29
3550.00,98.28
3547.00,98.29
3544.00,98.25
3541.00,98.18
3538.00,98.15
3535.00,98.16
3532.00,98.15
3529.00,98.07
3526.00,97.99
3523.00,97.97
3520.00,97.95
3517.00,97.93
3514.00,97.92
3511.00,97.86
3508.00,97.84
3505.00,97.76
3502.00,97.79
3499.00,97.78
3496.00,97.78
3493.00,97.71
3490.00,97.66
3487.00,97.70
3484.00,97.69
3481.00,97.70
3478.00,97.73
3475.00,97.65
3472.00,97.63
3469.00,97.63
3466.00,97.56
3463.00,97.59
3460.00,97.57
3457.00,97.64
3454.00,97.62
3451.00,97.53
3448.00,97.50
3445.00,97.47
3442.00,97.43
3439.00,97.44
3436.00,97.48
3433.00,97.46
3430.00,97.50
3427.00,97.44
3424.00,97.39
3421.00,97.40
3418.00,97.35
3415.00,97.34
3412.00,97.31
3409.00,97.30
3406.00,97.27
3403.00,97.22
3400.00,97.14
3397.00,97.16
3394.00,97.09
3391.00,97.09
3388.00,96.99
3385.00,96.92
3382.00,96.89
3379.00,96.81
3376.00,96.70
3373.00,96.58
3370.00,96.52
3367.00,96.34
3364.00,96.24
3361.00,96.15
3358.00,95.92
3355.00,95.75
3352.00,95.57
3349.00,95.29
3346.00,94.98
3343.00,94.69
3340.00,94.34
3337.00,93.93
3334.00,93.53
3331.00,92.98
3328.00,92.41
3325.00,91.76
3322.00,90.97
3319.00,90.12
3316.00,89.12
3313.00,88.07
3310.00,87.00
3307.00,86.01
3304.00,85.26
3301.00,84.73
3298.00,84.51
3295.00,84.54
3292.00,84.80
3289.00,85.18
3286.00,85.69
3283.00,86.26
3280.00,86.73
3277.00,87.23
3274.00,87.72
3271.00,88.24
3268.00,88.69
3265.00,89.19
3262.00,89.72
3259.00,90.27
3256.00,90.77
3253.00,91.28
3250.00,91.72
3247.00,92.10
3244.00,92.53
3241.00,92.91
3238.00,93.23
3235.00,93.58
3232.00,93.84
3229.00,94.07
3226.00,94.30
3223.00,94.52
3220.00,94.63
3217.00,94.73
3214.00,94.81
3211.00,94.92
3208.00,95.00
3205.00,95.04
3202.00,95.14
3199.00,95.21
3196.00,95.31
3193.00,95.43
3190.00,95.52
3187.00,95.61
3184.00,95.78
3181.00,95.87
3178.00,96.06
3175.00,96.19
3172.00,96.31
3169.00,96.41
3166.00,96.48
3163.00,96.65
3160.00,96.78
3157.00,96.85
3154.00,96.90
3151.00,96.93
3148.00,96.94
3145.00,96.99
3142.00,97.04
3139.00,97.08
3136.00,97.06
3133.00,97.04
3130.00,96.99
3127.00,96.96
3124.00,96.93
3121.00,96.92
3118.00,96.82
3115.00,96.74
3112.00,96.60
3109.00,96.47
3106.00,96.33
3103.00,96.20
3100.00,96.06
3097.00,95.92
3094.00,95.77
3091.00,95.65
3088.00,95.58
3085.00,95.54
3082.00,95.52
3079.00,95.51
3076.00,95.48
3073.00,95.50
3070.00,95.59
3067.00,95.66
3064.00,95.74
3061.00,95.82
3058.00,95.99
3055.00,96.18
3052.00,96.36
3049.00,96.52
3046.00,96.72
3043.00,96.93
3040.00,97.09
3037.00,97.23
3034.00,97.33
3031.00,97.42
3028.00,97.50
3025.00,97.58
3022.00,97.60
3019.00,97.63
3016.00,97.69
3013.00,97.70
3010.00,97.72
3007.00,97.74
3004.00,97.71
3001.00,97.69
2998.00,97.65
2995.00,97.63
2992.00,97.60
2989.00,97.51
2986.00,97.38
2983.00,97.17
2980.00,96.92
2977.00,96.63
2974.00,96.22
2971.00,95.84
2968.00,95.38
2965.00,94.83
2962.00,94.30
2959.00,93.68
2956.00,92.93
2953.00,92.03
2950.00,90.86
2947.00,89.58
2944.00,88.52
2941.00,87.57
2938.00,86.69
2935.00,86.13
2932.00,86.01
2929.00,86.35
2926.00,87.01
2923.00,87.73
2920.00,88.41
2917.00,89.18
2914.00,89.77
2911.00,90.27
2908.00,90.76
2905.00,91.30
2902.00,91.93
2899.00,92.50
2896.00,93.02
2893.00,93.42
2890.00,93.62
2887.00,93.59
2884.00,93.31
2881.00,92.77
2878.00,92.11
2875.00,91.52
2872.00,91.08
2869.00,90.72
2866.00,90.30
2863.00,89.80
2860.00,89.55
2857.00,89.83
2854.00,90.68
2851.00,91.80
2848.00,93.06
2845.00,94.18
2842.00,95.02
2839.00,95.65
2836.00,96.00
2833.00,96.22
2830.00,96.39
2827.00,96.52
2824.00,96.64
2821.00,96.74
2818.00,96.86
2815.00,97.00
2812.00,97.09
2809.00,97.14
2806.00,97.22
2803.00,97.30
2800.00,97.35
2797.00,97.39
2794.00,97.46
2791.00,97.51
2788.00,97.57
2785.00,97.62
2782.00,97.60
2779.00,97.68
2776.00,97.72
2773.00,97.69
2770.00,97.73
2767.00,97.78
2764.00,97.81
2761.00,97.81
2758.00,97.83
2755.00,97.83
2752.00,97.84
2749.00,97.87
2746.00,97.89
2743.00,97.90
2740.00,97.91
2737.00,97.93
2734.00,97.95
2731.00,97.99
2728.00,98.02
2725.00,98.07
2722.00,98.11
2719.00,98.12
2716.00,98.15
2713.00,98.15
2710.00,98.17
2707.00,98.15
2704.00,98.16
2701.00,98.22
2698.00,98.21
2695.00,98.21
2692.00,98.20
2689.00,98.20
2686.00,98.21
2683.00,98.24
2680.00,98.24
2677.00,98.25
2674.00,98.24
2671.00,98.26
2668.00,98.28
2665.00,98.28
2662.00,98.27
2659.00,98.28
2656.00,98.25
2653.00,98.19
2650.00,98.20
2647.00,98.15
2644.00,98.13
2641.00,98.14
2638.00,98.14
2635.00,98.06
2632.00,98.04
2629.00,98.03
2626.00,97.98
2623.00,97.97
2620.00,97.98
2617.00,97.94
2614.00,97.89
2611.00,97.89
2608.00,97.86
2605.00,97.81
2602.00,97.80
2599.00,97.82
2596.00,97.79
2593.00,97.77
2590.00,97.73
2587.00,97.70
2584.00,97.69
2581.00,97.67
2578.00,97.66
2575.00,97.68
2572.00,97.70
2569.00,97.69
2566.00,97.65
2563.00,97.66
2560.00,97.71
2557.00,97.71
2554.00,97.71
2551.00,97.69
2548.00,97.71
2545.00,97.73
2542.00,97.70
2539.00,97.75
2536.00,97.74
2533.00,97.73
2530.00,97.71
2527.00,97.69
2524.00,97.69
2521.00,97.75
2518.00,97.77
2515.00,97.77
2512.00,97.73
2509.00,97.76
2506.00,97.80
2503.00,97.75
2500.00,97.71
2497.00,97.75
2494.00,97.74
2491.00,97.76
2488.00,97.81
2485.00,97.77
2482.00,97.77
2479.00,97.80
2476.00,97.74
2473.00,97.76
2470.00,97.81
2467.00,97.79
2464.00,97.76
2461.00,97.78
2458.00,97.77
2455.00,97.77
2452.00,97.81
2449.00,97.81
2446.00,97.80
2443.00,97.78
2440.00,97.82
2437.00,97.84
2434.00,97.83
2431.00,97.87
2428.00,97.90
2425.00,97.90
2422.00,97.88
2419.00,97.89
2416.00,97.96
2413.00,97.97
2410.00,97.90
2407.00,97.94
2404.00,97.99
2401.00,98.01
2398.00,98.04
2395.00,98.08
2392.00,98.04
2389.00,98.13
2386.00,98.19
2383.00,98.32
2380.00,98.48
2377.00,98.51
2374.00,98.39
2371.00,98.31
2368.00,98.56
2365.00,98.61
2362.00,98.39
2359.00,98.38
2356.00,98.50
2353.00,98.45
2350.00,98.52
2347.00,98.51
2344.00,98.55
2341.00,98.49
2338.00,98.37
2335.00,98.43
2332.00,98.49
2329.00,98.40
2326.00,98.29
2323.00,98.24
2320.00,98.27
2317.00,98.20
2314.00,98.14
2311.00,98.16
2308.00,98.08
2305.00,97.96
2302.00,97.90
2299.00,97.88
2296.00,97.73
2293.00,97.72
2290.00,97.62
2287.00,97.47
2284.00,97.35
2281.00,97.30
2278.00,97.20
2275.00,97.21
2272.00,97.17
2269.00,97.11
2266.00,97.03
2263.00,96.98
2260.00,96.88
2257.00,96.90
2254.00,96.86
2251.00,96.80
2248.00,96.79
2245.00,96.76
2242.00,96.62
2239.00,96.61
2236.00,96.56
2233.00,96.44
2230.00,96.43
2227.00,96.42
2224.00,96.35
2221.00,96.25
2218.00,96.23
2215.00,96.12
2212.00,96.13
2209.00,95.94
2206.00,95.93
2203.00,95.92
2200.00,95.86
2197.00,95.89
2194.00,95.98
2191.00,95.75
2188.00,95.48
2185.00,95.39
2182.00,95.45
2179.00,95.45
2176.00,95.48
2173.00,95.39
2170.00,95.22
2167.00,95.14
2164.00,94.88
2161.00,94.66
2158.00,95.14
2155.00,95.57
2152.00,95.80
2149.00,95.91
2146.00,95.96
2143.00,96.19
2140.00,96.36
2137.00,96.51
2134.00,96.72
2131.00,96.91
2128.00,96.92
2125.00,96.91
2122.00,96.91
2119.00,97.01
2116.00,96.96
2113.00,96.92
2110.00,96.89
2107.00,96.92
2104.00,96.98
2101.00,96.86
2098.00,96.79
2095.00,96.91
2092.00,96.94
2089.00,96.97
2086.00,96.90
2083.00,96.88
2080.00,96.83
2077.00,96.64
2074.00,96.59
2071.00,96.69
2068.00,96.65
2065.00,96.62
2062.00,96.52
2059.00,96.49
2056.00,96.41
2053.00,96.26
2050.00,95.96
2047.00,95.78
2044.00,95.72
2041.00,95.65
2038.00,95.53
2035.00,95.34
2032.00,95.42
2029.00,95.49
2026.00,95.51
2023.00,95.26
2020.00,95.36
2017.00,95.61
2014.00,95.61
2011.00,95.65
2008.00,95.82
2005.00,95.95
2002.00,96.02
1999.00,96.14
1996.00,96.11
1993.00,96.07
1990.00,96.02
1987.00,95.92
1984.00,95.81
1981.00,95.66
1978.00,95.57
1975.00,95.75
1972.00,95.91
1969.00,95.89
1966.00,96.03
1963.00,96.17
1960.00,96.28
1957.00,96.41
1954.00,96.45
1951.00,96.55
1948.00,96.72
1945.00,96.85
1942.00,96.99
1939.00,97.03
1936.00,97.09
1933.00,97.16
1930.00,97.18
1927.00,97.32
1924.00,97.31
1921.00,97.48
1918.00,97.45
1915.00,97.44
1912.00,97.48
1909.00,97.54
1906.00,97.55
1903.00,97.57
1900.00,97.65
1897.00,97.68
1894.00,97.67
1891.00,97.66
1888.00,97.76
1885.00,97.82
1882.00,97.78
1879.00,97.77
1876.00,97.82
1873.00,97.86
1870.00,97.89
1867.00,97.91
1864.00,97.92
1861.00,97.98
1858.00,97.99
1855.00,97.99
1852.00,97.99
1849.00,97.98
1846.00,98.08
1843.00,98.12
1840.00,98.09
1837.00,98.13
1834.00,98.19
1831.00,98.21
1828.00,98.20
1825.00,98.16
1822.00,98.21
1819.00,98.24
1816.00,98.30
1813.00,98.28
1810.00,98.29
1807.00,98.32
1804.00,98.33
1801.00,98.37
1798.00,98.33
1795.00,98.30
1792.00,98.36
1789.00,98.34
1786.00,98.31
1783.00,98.34
1780.00,98.35
1777.00,98.34
1774.00,98.31
1771.00,98.30
1768.00,98.30
1765.00,98.27
1762.00,98.22
1759.00,98.17
1756.00,98.12
1753.00,98.09
1750.00,98.07
1747.00,97.96
1744.00,97.85
1741.00,97.75
1738.00,97.68
1735.00,97.63
1732.00,97.64
1729.00,97.68
1726.00,97.69
1723.00,97.70
1720.00,97.74
1717.00,97.72
1714.00,97.70
1711.00,97.69
1708.00,97.67
1705.00,97.64
1702.00,97.63
1699.00,97.63
1696.00,97.62
1693.00,97.50
1690.00,97.29
1687.00,96.95
1684.00,96.32
1681.00,95.63
1678.00,94.87
1675.00,93.86
1672.00,92.89
1669.00,91.63
1666.00,90.32
1663.00,88.67
1660.00,86.87
1657.00,85.35
1654.00,83.50
1651.00,80.57
1648.00,78.67
1645.00,75.35
1642.00,72.88
1639.00,70.74
1636.00,68.93
1633.00,68.02
1630.00,68.79
1627.00,70.53
1624.00,72.55
1621.00,74.83
1618.00,77.01
1615.00,79.76
1612.00,81.70
1609.00,83.46
1606.00,85.00
1603.00,86.61
1600.00,87.98
1597.00,88.97
1594.00,89.65
1591.00,90.00
1588.00,90.09
1585.00,89.90
1582.00,89.49
1579.00,88.90
1576.00,87.85
1573.00,86.86
1570.00,85.71
1567.00,84.37
1564.00,83.06
1561.00,82.05
1558.00,80.00
1555.00,78.83
1552.00,77.57
1549.00,76.13
1546.00,74.66
1543.00,72.91
1540.00,70.77
1537.00,69.11
1534.00,68.42
1531.00,68.27
1528.00,69.25
1525.00,70.92
1522.00,72.96
1519.00,75.17
1516.00,77.32
1513.00,79.14
1510.00,80.80
1507.00,82.49
1504.00,83.94
1501.00,85.03
1498.00,86.05
1495.00,87.00
1492.00,87.70
1489.00,88.24
1486.00,88.34
1483.00,87.66
1480.00,85.90
1477.00,83.87
1474.00,82.85
1471.00,83.63
1468.00,83.35
1465.00,82.08
1462.00,82.37
1459.00,83.48
1456.00,84.52
1453.00,85.23
1450.00,85.83
1447.00,86.06
1444.00,85.94
1441.00,85.69
1438.00,85.48
1435.00,85.41
1432.00,85.83
1429.00,86.41
1426.00,86.59
1423.00,86.11
1420.00,84.89
1417.00,83.32
1414.00,84.35
1411.00,86.63
1408.00,88.25
1405.00,89.16
1402.00,89.65
1399.00,89.77
1396.00,89.68
1393.00,89.25
1390.00,88.80
1387.00,88.30
1384.00,87.91
1381.00,87.40
1378.00,86.62
1375.00,85.68
1372.00,84.89
1369.00,84.86
1366.00,85.21
1363.00,85.76
1360.00,86.24
1357.00,86.70
1354.00,87.20
1351.00,87.69
1348.00,88.18
1345.00,88.58
1342.00,88.92
1339.00,89.09
1336.00,89.26
1333.00,89.36
1330.00,89.34
1327.00,89.38
1324.00,89.58
1321.00,89.74
1318.00,89.79
1315.00,89.70
1312.00,89.42
1309.00,89.08
1306.00,88.71
1303.00,88.40
1300.00,88.32
1297.00,88.30
1294.00,88.17
1291.00,87.87
1288.00,87.32
1285.00,86.30
1282.00,84.97
1279.00,83.33
1276.00,81.98
1273.00,81.48
1270.00,81.68
1267.00,82.27
1264.00,83.02
1261.00,83.78
1258.00,84.44
1255.00,85.03
1252.00,85.52
1249.00,85.91
1246.00,86.26
1243.00,86.53
1240.00,86.73
1237.00,87.01
1234.00,87.36
1231.00,87.77
1228.00,88.05
1225.00,88.05
1222.00,88.38
1219.00,89.03
1216.00,89.27
1213.00,89.22
1210.00,88.91
1207.00,88.04
1204.00,86.43
1201.00,84.21
1198.00,82.80
1195.00,83.61
1192.00,85.44
1189.00,86.71
1186.00,87.03
1183.00,86.64
1180.00,86.32
1177.00,86.80
1174.00,87.94
1171.00,89.01
1168.00,89.78
1165.00,90.25
1162.00,90.40
1159.00,90.36
1156.00,90.03
1153.00,89.56
1150.00,89.10
1147.00,88.76
1144.00,88.66
1141.00,88.53
1138.00,88.68
1135.00,89.41
1132.00,90.25
1129.00,90.79
1126.00,91.14
1123.00,91.33
1120.00,91.46
1117.00,91.55
1114.00,91.62
1111.00,91.63
1108.00,91.69
1105.00,91.73
1102.00,91.84
1099.00,91.80
1096.00,91.76
1093.00,91.89
1090.00,92.04
1087.00,92.09
1084.00,92.28
1081.00,92.47
1078.00,92.53
1075.00,92.56
1072.00,92.42
1069.00,92.21
1066.00,92.05
1063.00,92.00
1060.00,92.12
1057.00,92.21
1054.00,92.31
1051.00,92.26
1048.00,92.24
1045.00,92.15
1042.00,92.12
1039.00,92.14
1036.00,92.32
1033.00,92.50
1030.00,92.72
1027.00,92.87
1024.00,93.03
1021.00,93.01
1018.00,93.00
1015.00,93.05
1012.00,93.01
1009.00,93.14
1006.00,93.25
1003.00,93.36
1000.00,93.46
997.00,93.47
994.00,93.55
991.00,93.66
988.00,93.68
985.00,93.77
982.00,93.98
979.00,94.15
976.00,94.15
973.00,94.18
970.00,94.19
967.00,94.15
964.00,94.12
961.00,94.00
958.00,93.89
955.00,93.78
952.00,93.67
949.00,93.39
946.00,93.02
943.00,92.35
940.00,91.08
937.00,89.36
934.00,88.68
931.00,89.55
928.00,90.68
925.00,91.48
922.00,91.96
919.00,92.38
916.00,92.63
913.00,92.82
910.00,92.71
907.00,92.41
904.00,92.51
901.00,92.97
898.00,93.42
895.00,93.64
892.00,93.76
889.00,93.83
886.00,93.85
883.00,93.89
880.00,93.92
877.00,94.03
874.00,94.08
871.00,94.13
868.00,94.13
865.00,94.14
862.00,94.06
859.00,94.10
856.00,94.10
853.00,94.10
850.00,94.07
847.00,93.97
844.00,93.92
841.00,93.87
838.00,93.80
835.00,93.77
832.00,93.76
829.00,93.70
826.00,93.66
823.00,93.56
820.00,93.46
817.00,93.23
814.00,93.25
811.00,93.19
808.00,92.95
805.00,92.78
802.00,92.49
799.00,92.35
796.00,92.18
793.00,92.16
790.00,92.03
787.00,91.96
784.00,91.85
781.00,91.73
778.00,91.49
775.00,91.32
772.00,91.07
769.00,90.75
766.00,90.48
763.00,90.22
760.00,90.03
757.00,89.73
754.00,89.47
751.00,89.12
748.00,88.85
745.00,88.71
742.00,88.39
739.00,87.66
736.00,86.40
733.00,85.11
730.00,83.85
727.00,83.40
724.00,83.44
721.00,83.60
718.00,83.56
715.00,83.34
712.00,83.00
709.00,82.75
706.00,82.45
703.00,81.92
700.00,81.23
697.00,80.41
694.00,79.42
691.00,78.70
688.00,78.38
685.00,78.09
682.00,78.08
679.00,78.17
676.00,78.43
673.00,78.94
670.00,79.48
667.00,80.07
664.00,80.48
661.00,81.04
658.00,81.62
655.00,82.03
652.00,82.16
649.00,82.47
646.00,83.05
643.00,83.51
640.00,83.55
637.00,83.43
634.00,83.66
631.00,83.68
628.00,84.05
625.00,84.26
622.00,84.39
619.00,84.05
616.00,84.50
613.00,84.23
610.00,84.11
607.00,83.59
604.00,83.43
601.00,83.00
598.00,83.04
595.00,82.28
592.00,81.65
589.00,81.08
586.00,79.51
583.00,78.39
580.00,76.45
577.00,76.01
574.00,77.68
571.00,78.65
568.00,77.59
565.00,79.05
562.00,79.39
559.00,80.69
556.00,79.48
553.00,81.44
550.00,81.49