File: raw_csv_data/Nylon - 15.csv
Created as New Dataset,87. BASF
cm-1,%T
4000.00,101.47
3997.00,101.50
3994.00,101.52
3991.00,101.54
3988.00,101.51
3985.00,101.51
3982.00,101.51
3979.00,101.48
3976.00,101.50
3973.00,101.51
3970.00,101.52
3967.00,101.54
3964.00,101.54
3961.00,101.52
3958.00,101.54
3955.00,101.49
3952.00,101.52
3949.00,101.56
3946.00,101.55
3943.00,101.55
3940.00,101.60
3937.00,101.60
3934.00,101.53
3931.00,101.51
3928.00,101.57
3925.00,101.57
3922.00,101.53
3919.00,101.51
3916.00,101.50
3913.00,101.52
3910.00,101.48
3907.00,101.54
3904.00,101.60
3901.00,101.62
3898.00,101.62
3895.00,101.61
3892.00,101.53
3889.00,101.55
3886.00,101.64
3883.00,101.55
3880.00,101.58
3877.00,101.57
3874.00,101.57
3871.00,101.56
3868.00,101.60
3865.00,101.62
3862.00,101.58
3859.00,101.55
3856.00,101.59
3853.00,101.62
3850.00,101.67
3847.00,101.60
3844.00,101.54
3841.00,101.55
3838.00,101.53
3835.00,101.53
3832.00,101.51
3829.00,101.51
3826.00,101.47
3823.00,101.49
3820.00,101.48
3817.00,101.49
3814.00,101.46
3811.00,101.43
3808.00,101.45
3805.00,101.50
3802.00,101.43
3799.00,101.40
3796.00,101.47
3793.00,101.43
3790.00,101.42
3787.00,101.39
3784.00,101.39
3781.00,101.34
3778.00,101.33
3775.00,101.33
3772.00,101.32
3769.00,101.36
3766.00,101.39
3763.00,101.36
3760.00,101.45
3757.00,101.44
3754.00,101.37
3751.00,101.41
3748.00,101.48
3745.00,101.48
3742.00,101.44
3739.00,101.46
3736.00,101.46
3733.00,101.44
3730.00,101.35
3727.00,101.35
3724.00,101.35
3721.00,101.37
3718.00,101.31
3715.00,101.29
3712.00,101.31
3709.00,101.32
3706.00,101.30
3703.00,101.33
3700.00,101.23
3697.00,101.18
3694.00,101.21
3691.00,101.31
3688.00,101.25
3685.00,101.24
3682.00,101.21
3679.00,101.23
3676.00,101.30
3673.00,101.33
3670.00,101.36
3667.00,101.20
3664.00,101.22
3661.00,101.10
3658.00,101.10
3655.00,101.11
3652.00,101.12
3649.00,101.21
3646.00,101.24
3643.00,101.15
3640.00,101.11
3637.00,101.08
3634.00,101.11
3631.00,101.17
3628.00,101.19
3625.00,101.15
3622.00,101.10
3619.00,101.07
3616.00,101.06
3613.00,101.07
3610.00,101.13
3607.00,101.08
3604.00,101.02
3601.00,100.91
3598.00,100.91
3595.00,100.94
3592.00,100.95
3589.00,100.97
3586.00,100.94
3583.00,100.90
3580.00,100.88
3577.00,100.87
3574.00,100.87
3571.00,100.83
3568.00,100.87
3565.00,100.98
3562.00,100.96
3559.00,100.86
3556.00,100.80
3553.00,100.74
3550.00,100.66
3547.00,100.68
3544.00,100.79
3541.00,100.70
3538.00,100.60
3535.00,100.58
3532.00,100.59
3529.00,100.61
3526.00,100.60
3523.00,100.60
3520.00,100.54
3517.00,100.51
3514.00,100.48
3511.00,100.51
3508.00,100.52
3505.00,100.50
3502.00,100.42
3499.00,100.45
3496.00,100.42
3493.00,100.42
3490.00,100.45
3487.00,100.38
3484.00,100.33
3481.00,100.31
3478.00,100.35
3475.00,100.30
3472.00,100.31
3469.00,100.27
3466.00,100.26
3463.00,100.30
3460.00,100.25
3457.00,100.26
3454.00,100.23
3451.00,100.31
3448.00,100.26
3445.00,100.19
3442.00,100.20
3439.00,100.17
3436.00,100.16
3433.00,100.18
3430.00,100.13
3427.00,100.12
3424.00,100.18
3421.00,100.14
3418.00,100.10
3415.00,100.07
3412.00,100.11
3409.00,100.12
3406.00,100.07
3403.00,100.07
3400.00,100.04
3397.00,100.02
3394.00,100.01
3391.00,100.03
3388.00,99.94
3385.00,99.92
3382.00,99.87
3379.00,99.79
3376.00,99.77
3373.00,99.74
3370.00,99.71
3367.00,99.61
3364.00,99.50
3361.00,99.44
3358.00,99.33
3355.00,99.19
3352.00,99.08
3349.00,98.92
3346.00,98.68
3343.00,98.49
3340.00,98.28
3337.00,98.05
3334.00,97.77
3331.00,97.47
3328.00,97.06
3325.00,96.55
3322.00,96.13
3319.00,95.64
3316.00,95.13
3313.00,94.65
3310.00,94.06
3307.00,93.37
3304.00,92.74
3301.00,92.23
3298.00,92.00
3295.00,91.95
3292.00,92.19
3289.00,92.58
3286.00,93.08
3283.00,93.55
3280.00,93.95
3277.00,94.36
3274.00,94.73
3271.00,95.05
3268.00,95.33
3265.00,95.63
3262.00,95.97
3259.00,96.28
3256.00,96.51
3253.00,96.75
3250.00,97.03
3247.00,97.28
3244.00,97.54
3241.00,97.69
3238.00,97.88
3235.00,98.05
3232.00,98.16
3229.00,98.35
3226.00,98.43
3223.00,98.50
3220.00,98.58
3217.00,98.63
3214.00,98.66
3211.00,98.71
3208.00,98.79
3205.00,98.87
3202.00,98.87
3199.00,98.89
3196.00,98.95
3193.00,99.00
3190.00,99.07
3187.00,99.09
3184.00,99.17
3181.00,99.24
3178.00,99.31
3175.00,99.37
3172.00,99.47
3169.00,99.55
3166.00,99.67
3163.00,99.77
3160.00,99.78
3157.00,99.78
3154.00,99.83
3151.00,99.84
3148.00,99.89
3145.00,99.98
3142.00,99.95
3139.00,99.95
3136.00,99.97
3133.00,99.95
3130.00,99.92
3127.00,99.89
3124.00,99.86
3121.00,99.89
3118.00,99.85
3115.00,99.80
3112.00,99.71
3109.00,99.65
3106.00,99.64
3103.00,99.54
3100.00,99.42
3097.00,99.37
3094.00,99.26
3091.00,99.20
3088.00,99.19
3085.00,99.16
3082.00,99.10
3079.00,99.08
3076.00,99.07
3073.00,99.08
3070.00,99.06
3067.00,99.08
3064.00,99.12
3061.00,99.16
3058.00,99.21
3055.00,99.33
3052.00,99.40
3049.00,99.52
3046.00,99.64
3043.00,99.77
3040.00,99.84
3037.00,99.92
3034.00,100.04
3031.00,100.14
3028.00,100.15
3025.00,100.15
3022.00,100.17
3019.00,100.22
3016.00,100.27
3013.00,100.28
3010.00,100.27
3007.00,100.25
3004.00,100.28
3001.00,100.28
2998.00,100.27
2995.00,100.19
2992.00,100.20
2989.00,100.19
2986.00,100.12
2983.00,100.04
2980.00,99.89
2977.00,99.73
2974.00,99.52
2971.00,99.22
2968.00,98.91
2965.00,98.61
2962.00,98.27
2959.00,97.92
2956.00,97.39
2953.00,96.72
2950.00,95.92
2947.00,95.14
2944.00,94.52
2941.00,94.12
2938.00,93.81
2935.00,93.61
2932.00,93.58
2929.00,93.68
2926.00,93.83
2923.00,94.01
2920.00,94.29
2917.00,94.70
2914.00,95.19
2911.00,95.68
2908.00,96.01
2905.00,96.25
2902.00,96.41
2899.00,96.55
2896.00,96.78
2893.00,97.08
2890.00,97.34
2887.00,97.45
2884.00,97.39
2881.00,97.20
2878.00,96.78
2875.00,96.29
2872.00,95.83
2869.00,95.53
2866.00,95.35
2863.00,95.31
2860.00,95.39
2857.00,95.48
2854.00,95.61
2851.00,95.88
2848.00,96.56
2845.00,97.49
2842.00,98.20
2839.00,98.66
2836.00,98.97
2833.00,99.16
2830.00,99.32
2827.00,99.41
2824.00,99.46
2821.00,99.55
2818.00,99.62
2815.00,99.65
2812.00,99.71
2809.00,99.80
2806.00,99.85
2803.00,99.88
2800.00,99.92
2797.00,99.96
2794.00,99.99
2791.00,100.02
2788.00,100.04
2785.00,100.05
2782.00,100.07
2779.00,100.09
2776.00,100.14
2773.00,100.14
2770.00,100.17
2767.00,100.19
2764.00,100.19
2761.00,100.19
2758.00,100.21
2755.00,100.24
2752.00,100.23
2749.00,100.23
2746.00,100.20
2743.00,100.19
2740.00,100.20
2737.00,100.26
2734.00,100.29
2731.00,100.26
2728.00,100.28
2725.00,100.29
2722.00,100.32
2719.00,100.35
2716.00,100.35
2713.00,100.36
2710.00,100.38
2707.00,100.44
2704.00,100.42
2701.00,100.40
2698.00,100.40
2695.00,100.45
2692.00,100.41
2689.00,100.42
2686.00,100.42
2683.00,100.44
2680.00,100.42
2677.00,100.44
2674.00,100.45
2671.00,100.41
2668.00,100.42
2665.00,100.45
2662.00,100.41
2659.00,100.38
2656.00,100.40
2653.00,100.39
2650.00,100.35
2647.00,100.36
2644.00,100.32
2641.00,100.29
2638.00,100.29
2635.00,100.28
2632.00,100.25
2629.00,100.22
2626.00,100.22
2623.00,100.21
2620.00,100.23
2617.00,100.23
2614.00,100.18
2611.00,100.15
2608.00,100.18
2605.00,100.14
2602.00,100.07
2599.00,100.08
2596.00,100.11
2593.00,100.13
2590.00,100.06
2587.00,100.10
2584.00,100.03
2581.00,100.11
2578.00,100.07
2575.00,100.05
2572.00,100.06
2569.00,100.04
2566.00,100.03
2563.00,100.04
2560.00,100.05
2557.00,100.06
2554.00,100.00
2551.00,99.98
2548.00,100.02
2545.00,100.04
2542.00,100.01
2539.00,99.98
2536.00,99.97
2533.00,100.00
2530.00,100.01
2527.00,100.00
2524.00,99.99
2521.00,100.01
2518.00,100.01
2515.00,100.00
2512.00,100.06
2509.00,100.10
2506.00,100.07
2503.00,100.06
2500.00,100.06
2497.00,100.07
2494.00,100.01
2491.00,100.02
2488.00,100.05
2485.00,100.11
2482.00,100.07
2479.00,100.02
2476.00,99.99
2473.00,100.04
2470.00,100.08
2467.00,100.06
2464.00,100.04
2461.00,100.06
2458.00,100.09
2455.00,100.03
2452.00,100.01
2449.00,100.02
2446.00,100.05
2443.00,100.10
2440.00,100.13
2437.00,100.12
2434.00,100.11
2431.00,100.13
2428.00,100.10
2425.00,100.10
2422.00,100.09
2419.00,100.09
2416.00,100.11
2413.00,100.08
2410.00,100.08
2407.00,100.15
2404.00,100.17
2401.00,100.15
2398.00,100.18
2395.00,100.24
2392.00,100.22
2389.00,100.24
2386.00,100.27
2383.00,100.26
2380.00,100.28
2377.00,100.37
2374.00,100.42
2371.00,100.48
2368.00,100.40
2365.00,100.06
2362.00,100.34
2359.00,100.43
2356.00,100.37
2353.00,100.30
2350.00,100.34
2347.00,100.34
2344.00,100.30
2341.00,100.30
2338.00,100.33
2335.00,100.28
2332.00,100.32
2329.00,100.20
2326.00,100.08
2323.00,100.01
2320.00,100.04
2317.00,100.11
2314.00,100.09
2311.00,100.08
2308.00,100.08
2305.00,99.98
2302.00,99.92
2299.00,99.92
2296.00,99.88
2293.00,99.85
2290.00,99.75
2287.00,99.66
2284.00,99.63
2281.00,99.61
2278.00,99.68
2275.00,99.62
2272.00,99.53
2269.00,99.42
2266.00,99.38
2263.00,99.45
2260.00,99.40
2257.00,99.30
2254.00,99.33
2251.00,99.30
2248.00,99.26
2245.00,99.27
2242.00,99.23
2239.00,99.12
2236.00,99.12
2233.00,99.09
2230.00,99.05
2227.00,99.06
2224.00,99.02
2221.00,98.96
2218.00,98.99
2215.00,99.05
2212.00,99.02
2209.00,98.84
2206.00,98.81
2203.00,98.69
2200.00,98.69
2197.00,98.71
2194.00,98.56
2191.00,98.59
2188.00,98.47
2185.00,98.50
2182.00,98.33
2179.00,98.38
2176.00,98.46
2173.00,98.37
2170.00,98.21
2167.00,98.06
2164.00,98.00
2161.00,97.86
2158.00,98.13
2155.00,98.33
2152.00,98.61
2149.00,98.79
2146.00,98.79
2143.00,98.92
2140.00,98.89
2137.00,99.00
2134.00,99.15
2131.00,99.28
2128.00,99.36
2125.00,99.40
2122.00,99.39
2119.00,99.33
2116.00,99.37
2113.00,99.37
2110.00,99.33
2107.00,99.35
2104.00,99.31
2101.00,99.27
2098.00,99.34
2095.00,99.42
2092.00,99.43
2089.00,99.31
2086.00,99.31
2083.00,99.32
2080.00,99.34
2077.00,99.35
2074.00,99.25
2071.00,99.06
2068.00,99.09
2065.00,99.11
2062.00,99.01
2059.00,99.03
2056.00,98.93
2053.00,98.86
2050.00,98.66
2047.00,98.60
2044.00,98.50
2041.00,98.46
2038.00,98.39
2035.00,98.43
2032.00,98.39
2029.00,98.39
2026.00,98.38
2023.00,98.33
2020.00,98.49
2017.00,98.39
2014.00,98.49
2011.00,98.55
2008.00,98.63
2005.00,98.72
2002.00,98.65
1999.00,98.71
1996.00,98.65
1993.00,98.68
1990.00,98.64
1987.00,98.66
1984.00,98.48
1981.00,98.33
1978.00,98.44
1975.00,98.49
1972.00,98.56
1969.00,98.77
1966.00,98.66
1963.00,98.65
1960.00,98.88
1957.00,99.04
1954.00,99.03
1951.00,99.12
1948.00,99.11
1945.00,99.25
1942.00,99.36
1939.00,99.35
1936.00,99.43
1933.00,99.43
1930.00,99.45
1927.00,99.47
1924.00,99.42
1921.00,99.53
1918.00,99.55
1915.00,99.60
1912.00,99.59
1909.00,99.52
1906.00,99.64
1903.00,99.71
1900.00,99.74
1897.00,99.72
1894.00,99.73
1891.00,99.79
1888.00,99.83
1885.00,99.83
1882.00,99.78
1879.00,99.82
1876.00,99.84
1873.00,99.84
1870.00,99.83
1867.00,99.83
1864.00,99.89
1861.00,99.87
1858.00,99.87
1855.00,99.88
1852.00,99.92
1849.00,99.96
1846.00,100.00
1843.00,99.99
1840.00,99.97
1837.00,99.99
1834.00,99.98
1831.00,99.97
1828.00,100.04
1825.00,99.98
1822.00,100.01
1819.00,100.01
1816.00,100.04
1813.00,100.03
1810.00,100.08
1807.00,100.08
1804.00,100.08
1801.00,100.03
1798.00,100.06
1795.00,100.06
1792.00,100.15
1789.00,100.15
1786.00,100.10
1783.00,100.08
1780.00,100.10
1777.00,100.08
1774.00,100.16
1771.00,100.27
1768.00,100.09
1765.00,99.99
1762.00,99.99
1759.00,99.96
1756.00,99.89
1753.00,99.85
1750.00,99.83
1747.00,99.81
1744.00,99.71
1741.00,99.64
1738.00,99.65
1735.00,99.67
1732.00,99.55
1729.00,99.59
1726.00,99.60
1723.00,99.63
1720.00,99.65
1717.00,99.62
1714.00,99.64
1711.00,99.67
1708.00,99.67
1705.00,99.59
1702.00,99.57
1699.00,99.72
1696.00,99.82
1693.00,99.64
1690.00,99.27
1687.00,99.14
1684.00,99.06
1681.00,98.46
1678.00,97.75
1675.00,97.14
1672.00,96.50
1669.00,95.43
1666.00,94.28
1663.00,93.14
1660.00,92.12
1657.00,91.31
1654.00,90.47
1651.00,88.88
1648.00,87.30
1645.00,84.97
1642.00,83.15
1639.00,81.67
1636.00,80.83
1633.00,80.89
1630.00,81.59
1627.00,82.61
1624.00,83.79
1621.00,85.16
1618.00,86.67
1615.00,88.38
1612.00,89.33
1609.00,90.47
1606.00,91.64
1603.00,92.73
1600.00,93.57
1597.00,94.10
1594.00,94.54
1591.00,94.86
1588.00,95.03
1585.00,95.01
1582.00,94.77
1579.00,94.48
1576.00,94.11
1573.00,93.48
1570.00,92.58
1567.00,91.74
1564.00,90.96
1561.00,90.58
1558.00,89.45
1555.00,88.55
1552.00,87.47
1549.00,86.22
1546.00,85.26
1543.00,84.42
1540.00,84.03
1537.00,84.01
1534.00,84.20
1531.00,84.93
1528.00,85.86
1525.00,86.91
1522.00,88.07
1519.00,89.13
1516.00,89.95
1513.00,90.76
1510.00,91.49
1507.00,92.43
1504.00,93.31
1501.00,93.62
1498.00,94.12
1495.00,94.67
1492.00,94.86
1489.00,94.94
1486.00,94.67
1483.00,93.85
1480.00,92.76
1477.00,92.22
1474.00,92.33
1471.00,92.74
1468.00,92.26
1465.00,91.02
1462.00,90.57
1459.00,91.29
1456.00,92.14
1453.00,92.34
1450.00,92.53
1447.00,92.73
1444.00,92.79
1441.00,92.73
1438.00,92.67
1435.00,92.55
1432.00,92.84
1429.00,93.15
1426.00,93.15
1423.00,92.66
1420.00,91.95
1417.00,91.39
1414.00,91.67
1411.00,92.54
1408.00,93.48
1405.00,94.20
1402.00,94.71
1399.00,94.99
1396.00,95.00
1393.00,94.85
1390.00,94.72
1387.00,94.43
1384.00,94.01
1381.00,93.55
1378.00,93.07
1375.00,92.73
1372.00,92.61
1369.00,92.67
1366.00,92.74
1363.00,92.87
1360.00,93.08
1357.00,93.41
1354.00,93.68
1351.00,93.84
1348.00,93.98
1345.00,94.12
1342.00,94.25
1339.00,94.33
1336.00,94.41
1333.00,94.50
1330.00,94.65
1327.00,94.77
1324.00,94.84
1321.00,94.85
1318.00,94.77
1315.00,94.67
1312.00,94.57
1309.00,94.50
1306.00,94.36
1303.00,94.25
1300.00,94.21
1297.00,94.14
1294.00,93.98
1291.00,93.88
1288.00,93.87
1285.00,93.74
1282.00,93.53
1279.00,93.39
1276.00,93.32
1273.00,93.15
1270.00,92.67
1267.00,91.79
1264.00,91.09
1261.00,90.94
1258.00,91.22
1255.00,91.72
1252.00,92.21
1249.00,92.54
1246.00,92.76
1243.00,92.84
1240.00,92.83
1237.00,92.93
1234.00,93.29
1231.00,93.75
1228.00,94.31
1225.00,94.75
1222.00,94.87
1219.00,94.56
1216.00,94.02
1213.00,93.76
1210.00,93.70
1207.00,93.53
1204.00,92.85
1201.00,92.11
1198.00,92.31
1195.00,93.08
1192.00,93.78
1189.00,94.37
1186.00,94.73
1183.00,94.82
1180.00,94.67
1177.00,94.15
1174.00,93.54
1171.00,93.12
1168.00,93.09
1165.00,93.62
1162.00,94.24
1159.00,94.74
1156.00,95.15
1153.00,95.45
1150.00,95.68
1147.00,95.83
1144.00,95.98
1141.00,96.01
1138.00,96.08
1135.00,96.12
1132.00,96.03
1129.00,95.73
1126.00,95.27
1123.00,95.02
1120.00,94.93
1117.00,94.79
1114.00,94.84
1111.00,94.96
1108.00,95.07
1105.00,95.28
1102.00,95.49
1099.00,95.65
1096.00,95.74
1093.00,95.87
1090.00,95.90
1087.00,95.91
1084.00,95.87
1081.00,95.78
1078.00,95.76
1075.00,95.75
1072.00,95.71
1069.00,95.72
1066.00,95.83
1063.00,96.01
1060.00,96.15
1057.00,96.35
1054.00,96.45
1051.00,96.59
1048.00,96.61
1045.00,96.69
1042.00,96.66
1039.00,96.61
1036.00,96.57
1033.00,96.44
1030.00,96.28
1027.00,96.31
1024.00,96.49
1021.00,96.63
1018.00,96.75
1015.00,96.76
1012.00,96.84
1009.00,96.87
1006.00,96.85
1003.00,96.82
1000.00,96.85
997.00,96.87
994.00,96.79
991.00,96.67
988.00,96.60
985.00,96.45
982.00,96.38
979.00,96.30
976.00,96.22
973.00,96.18
970.00,96.13
967.00,96.05
964.00,95.91
961.00,95.61
958.00,95.55
955.00,95.73
952.00,95.82
949.00,95.96
946.00,96.18
943.00,96.43
940.00,96.62
937.00,96.51
934.00,96.39
931.00,96.18
928.00,96.07
925.00,96.23
922.00,96.54
919.00,96.66
916.00,96.67
913.00,96.75
910.00,96.89
907.00,96.90
904.00,96.91
901.00,96.95
898.00,97.00
895.00,96.97
892.00,97.02
889.00,97.03
886.00,97.00
883.00,97.00
880.00,96.97
877.00,97.05
874.00,96.95
871.00,96.94
868.00,97.06
865.00,97.10
862.00,97.03
859.00,97.01
856.00,97.00
853.00,96.96
850.00,96.94
847.00,97.00
844.00,96.93
841.00,96.76
838.00,96.57
835.00,96.28
832.00,96.16
829.00,96.35
826.00,96.54
823.00,96.61
820.00,96.60
817.00,96.56
814.00,96.32
811.00,96.32
808.00,96.27
805.00,96.26
802.00,96.02
799.00,95.87
796.00,95.94
793.00,95.84
790.00,95.80
787.00,95.64
784.00,95.52
781.00,95.45
778.00,95.27
775.00,95.13
772.00,95.05
769.00,94.92
766.00,94.79
763.00,94.69
760.00,94.52
757.00,94.34
754.00,94.17
751.00,94.00
748.00,93.56
745.00,93.42
742.00,93.27
739.00,92.83
736.00,92.15
733.00,91.14
730.00,90.26
727.00,90.16
724.00,90.40
721.00,90.39
718.00,90.22
715.00,90.05
712.00,89.88
709.00,89.65
706.00,89.37
703.00,89.03
700.00,88.53
697.00,87.94
694.00,87.29
691.00,86.68
688.00,86.24
685.00,86.30
682.00,86.21
679.00,86.29
676.00,86.35
673.00,86.70
670.00,87.06
667.00,87.41
664.00,87.59
661.00,87.99
658.00,88.18
655.00,88.47
652.00,88.97
649.00,89.07
646.00,89.18
643.00,89.24
640.00,89.42
637.00,89.67
634.00,89.81
631.00,90.09
628.00,89.90
625.00,90.03
622.00,90.49
619.00,90.60
616.00,89.32
613.00,88.79
610.00,89.95
607.00,89.65
604.00,89.78
601.00,88.95
598.00,88.69
595.00,88.90
592.00,87.80
589.00,87.49
586.00,87.25
583.00,86.73
580.00,87.00
577.00,85.67
574.00,84.16
571.00,84.84
568.00,85.39
565.00,85.44
562.00,86.80
559.00,86.60
556.00,87.49
553.00,86.39
550.00,86.09