File: raw_csv_data/Nylon - 19.csv
Created as New Dataset,94. Du Pont
cm-1,%T
4000.00,99.82
3997.00,99.78
3994.00,99.78
3991.00,99.76
3988.00,99.81
3985.00,99.80
3982.00,99.74
3979.00,99.78
3976.00,99.82
3973.00,99.81
3970.00,99.79
3967.00,99.82
3964.00,99.83
3961.00,99.80
3958.00,99.79
3955.00,99.81
3952.00,99.84
3949.00,99.88
3946.00,99.84
3943.00,99.83
3940.00,99.81
3937.00,99.82
3934.00,99.81
3931.00,99.83
3928.00,99.82
3925.00,99.84
3922.00,99.88
3919.00,99.85
3916.00,99.82
3913.00,99.80
3910.00,99.77
3907.00,99.76
3904.00,99.83
3901.00,99.88
3898.00,99.87
3895.00,99.86
3892.00,99.82
3889.00,99.80
3886.00,99.77
3883.00,99.76
3880.00,99.77
3877.00,99.79
3874.00,99.80
3871.00,99.78
3868.00,99.79
3865.00,99.79
3862.00,99.80
3859.00,99.81
3856.00,99.81
3853.00,99.77
3850.00,99.73
3847.00,99.77
3844.00,99.79
3841.00,99.73
3838.00,99.74
3835.00,99.75
3832.00,99.72
3829.00,99.75
3826.00,99.77
3823.00,99.75
3820.00,99.75
3817.00,99.74
3814.00,99.68
3811.00,99.69
3808.00,99.72
3805.00,99.72
3802.00,99.64
3799.00,99.66
3796.00,99.71
3793.00,99.72
3790.00,99.65
3787.00,99.66
3784.00,99.65
3781.00,99.64
3778.00,99.65
3775.00,99.64
3772.00,99.69
3769.00,99.67
3766.00,99.65
3763.00,99.64
3760.00,99.62
3757.00,99.64
3754.00,99.64
3751.00,99.65
3748.00,99.53
3745.00,99.47
3742.00,99.52
3739.00,99.62
3736.00,99.67
3733.00,99.66
3730.00,99.60
3727.00,99.58
3724.00,99.61
3721.00,99.65
3718.00,99.61
3715.00,99.56
3712.00,99.51
3709.00,99.48
3706.00,99.46
3703.00,99.48
3700.00,99.55
3697.00,99.54
3694.00,99.50
3691.00,99.48
3688.00,99.44
3685.00,99.41
3682.00,99.38
3679.00,99.41
3676.00,99.34
3673.00,99.39
3670.00,99.40
3667.00,99.40
3664.00,99.38
3661.00,99.34
3658.00,99.31
3655.00,99.31
3652.00,99.37
3649.00,99.40
3646.00,99.36
3643.00,99.30
3640.00,99.30
3637.00,99.33
3634.00,99.35
3631.00,99.31
3628.00,99.32
3625.00,99.28
3622.00,99.24
3619.00,99.13
3616.00,99.16
3613.00,99.19
3610.00,99.22
3607.00,99.16
3604.00,99.14
3601.00,99.13
3598.00,99.16
3595.00,99.13
3592.00,99.17
3589.00,99.05
3586.00,99.02
3583.00,99.01
3580.00,98.96
3577.00,98.94
3574.00,98.90
3571.00,98.87
3568.00,98.90
3565.00,98.86
3562.00,98.78
3559.00,98.76
3556.00,98.74
3553.00,98.70
3550.00,98.68
3547.00,98.66
3544.00,98.65
3541.00,98.58
3538.00,98.48
3535.00,98.50
3532.00,98.50
3529.00,98.51
3526.00,98.42
3523.00,98.30
3520.00,98.25
3517.00,98.31
3514.00,98.28
3511.00,98.19
3508.00,98.17
3505.00,98.18
3502.00,98.15
3499.00,98.11
3496.00,98.05
3493.00,98.02
3490.00,97.99
3487.00,97.99
3484.00,97.98
3481.00,98.05
3478.00,98.06
3475.00,97.96
3472.00,97.90
3469.00,97.93
3466.00,97.84
3463.00,97.89
3460.00,97.87
3457.00,97.86
3454.00,97.87
3451.00,97.85
3448.00,97.82
3445.00,97.81
3442.00,97.83
3439.00,97.77
3436.00,97.77
3433.00,97.81
3430.00,97.77
3427.00,97.76
3424.00,97.76
3421.00,97.72
3418.00,97.66
3415.00,97.68
3412.00,97.60
3409.00,97.55
3406.00,97.59
3403.00,97.59
3400.00,97.54
3397.00,97.53
3394.00,97.47
3391.00,97.45
3388.00,97.38
3385.00,97.32
3382.00,97.28
3379.00,97.22
3376.00,97.14
3373.00,97.02
3370.00,96.90
3367.00,96.80
3364.00,96.69
3361.00,96.55
3358.00,96.36
3355.00,96.17
3352.00,96.03
3349.00,95.79
3346.00,95.49
3343.00,95.17
3340.00,94.79
3337.00,94.42
3334.00,94.00
3331.00,93.39
3328.00,92.76
3325.00,91.96
3322.00,91.01
3319.00,89.93
3316.00,88.56
3313.00,87.06
3310.00,85.53
3307.00,84.04
3304.00,82.84
3301.00,82.14
3298.00,81.99
3295.00,82.34
3292.00,83.07
3289.00,83.99
3286.00,84.98
3283.00,85.94
3280.00,86.76
3277.00,87.59
3274.00,88.30
3271.00,88.81
3268.00,89.21
3265.00,89.67
3262.00,90.15
3259.00,90.66
3256.00,91.15
3253.00,91.61
3250.00,92.00
3247.00,92.38
3244.00,92.77
3241.00,93.10
3238.00,93.37
3235.00,93.67
3232.00,93.94
3229.00,94.16
3226.00,94.38
3223.00,94.54
3220.00,94.67
3217.00,94.75
3214.00,94.87
3211.00,94.99
3208.00,95.08
3205.00,95.12
3202.00,95.20
3199.00,95.28
3196.00,95.35
3193.00,95.47
3190.00,95.56
3187.00,95.62
3184.00,95.77
3181.00,95.87
3178.00,96.00
3175.00,96.17
3172.00,96.25
3169.00,96.37
3166.00,96.49
3163.00,96.65
3160.00,96.79
3157.00,96.89
3154.00,96.93
3151.00,96.99
3148.00,96.98
3145.00,97.02
3142.00,97.07
3139.00,97.11
3136.00,97.13
3133.00,97.14
3130.00,97.13
3127.00,97.12
3124.00,97.07
3121.00,97.06
3118.00,96.95
3115.00,96.88
3112.00,96.81
3109.00,96.67
3106.00,96.54
3103.00,96.46
3100.00,96.35
3097.00,96.26
3094.00,96.12
3091.00,96.01
3088.00,95.94
3085.00,95.89
3082.00,95.80
3079.00,95.77
3076.00,95.78
3073.00,95.72
3070.00,95.72
3067.00,95.74
3064.00,95.73
3061.00,95.74
3058.00,95.87
3055.00,96.04
3052.00,96.20
3049.00,96.43
3046.00,96.69
3043.00,96.92
3040.00,97.08
3037.00,97.22
3034.00,97.35
3031.00,97.45
3028.00,97.56
3025.00,97.61
3022.00,97.65
3019.00,97.70
3016.00,97.78
3013.00,97.82
3010.00,97.83
3007.00,97.83
3004.00,97.84
3001.00,97.84
2998.00,97.83
2995.00,97.84
2992.00,97.84
2989.00,97.76
2986.00,97.68
2983.00,97.48
2980.00,97.29
2977.00,97.07
2974.00,96.75
2971.00,96.36
2968.00,95.87
2965.00,95.32
2962.00,94.82
2959.00,94.23
2956.00,93.40
2953.00,92.35
2950.00,90.95
2947.00,89.42
2944.00,88.20
2941.00,87.22
2938.00,86.20
2935.00,85.44
2932.00,85.23
2929.00,85.70
2926.00,86.46
2923.00,87.24
2920.00,88.04
2917.00,88.84
2914.00,89.51
2911.00,90.03
2908.00,90.51
2905.00,91.09
2902.00,91.74
2899.00,92.40
2896.00,93.01
2893.00,93.44
2890.00,93.65
2887.00,93.62
2884.00,93.27
2881.00,92.56
2878.00,91.73
2875.00,91.12
2872.00,90.77
2869.00,90.56
2866.00,90.25
2863.00,89.64
2860.00,89.23
2857.00,89.38
2854.00,90.25
2851.00,91.48
2848.00,92.77
2845.00,93.90
2842.00,94.74
2839.00,95.29
2836.00,95.64
2833.00,95.86
2830.00,96.04
2827.00,96.15
2824.00,96.28
2821.00,96.40
2818.00,96.53
2815.00,96.67
2812.00,96.73
2809.00,96.81
2806.00,96.88
2803.00,96.99
2800.00,97.05
2797.00,97.08
2794.00,97.14
2791.00,97.22
2788.00,97.28
2785.00,97.30
2782.00,97.28
2779.00,97.36
2776.00,97.40
2773.00,97.40
2770.00,97.44
2767.00,97.47
2764.00,97.48
2761.00,97.49
2758.00,97.52
2755.00,97.53
2752.00,97.54
2749.00,97.51
2746.00,97.52
2743.00,97.56
2740.00,97.58
2737.00,97.64
2734.00,97.65
2731.00,97.67
2728.00,97.72
2725.00,97.79
2722.00,97.83
2719.00,97.83
2716.00,97.88
2713.00,97.90
2710.00,97.90
2707.00,97.89
2704.00,97.92
2701.00,97.95
2698.00,97.93
2695.00,97.91
2692.00,97.93
2689.00,97.93
2686.00,97.92
2683.00,97.96
2680.00,97.97
2677.00,97.97
2674.00,97.96
2671.00,97.98
2668.00,98.01
2665.00,98.00
2662.00,97.97
2659.00,97.96
2656.00,97.95
2653.00,97.93
2650.00,97.93
2647.00,97.90
2644.00,97.88
2641.00,97.89
2638.00,97.88
2635.00,97.82
2632.00,97.83
2629.00,97.81
2626.00,97.76
2623.00,97.76
2620.00,97.75
2617.00,97.73
2614.00,97.73
2611.00,97.71
2608.00,97.68
2605.00,97.62
2602.00,97.62
2599.00,97.66
2596.00,97.61
2593.00,97.60
2590.00,97.57
2587.00,97.55
2584.00,97.58
2581.00,97.54
2578.00,97.52
2575.00,97.52
2572.00,97.53
2569.00,97.52
2566.00,97.48
2563.00,97.52
2560.00,97.59
2557.00,97.60
2554.00,97.59
2551.00,97.58
2548.00,97.60
2545.00,97.54
2542.00,97.56
2539.00,97.62
2536.00,97.62
2533.00,97.59
2530.00,97.59
2527.00,97.59
2524.00,97.56
2521.00,97.59
2518.00,97.57
2515.00,97.57
2512.00,97.54
2509.00,97.56
2506.00,97.58
2503.00,97.59
2500.00,97.59
2497.00,97.63
2494.00,97.59
2491.00,97.56
2488.00,97.62
2485.00,97.62
2482.00,97.66
2479.00,97.65
2476.00,97.60
2473.00,97.65
2470.00,97.66
2467.00,97.63
2464.00,97.61
2461.00,97.62
2458.00,97.59
2455.00,97.61
2452.00,97.67
2449.00,97.64
2446.00,97.65
2443.00,97.63
2440.00,97.65
2437.00,97.69
2434.00,97.68
2431.00,97.70
2428.00,97.74
2425.00,97.75
2422.00,97.70
2419.00,97.72
2416.00,97.77
2413.00,97.77
2410.00,97.73
2407.00,97.75
2404.00,97.80
2401.00,97.81
2398.00,97.80
2395.00,97.80
2392.00,97.79
2389.00,97.86
2386.00,97.90
2383.00,97.98
2380.00,98.09
2377.00,98.18
2374.00,98.14
2371.00,98.16
2368.00,98.37
2365.00,98.45
2362.00,98.35
2359.00,98.27
2356.00,98.29
2353.00,98.37
2350.00,98.43
2347.00,98.38
2344.00,98.41
2341.00,98.48
2338.00,98.23
2335.00,98.28
2332.00,98.32
2329.00,98.23
2326.00,98.12
2323.00,98.04
2320.00,98.03
2317.00,97.94
2314.00,97.91
2311.00,97.87
2308.00,97.82
2305.00,97.77
2302.00,97.73
2299.00,97.71
2296.00,97.56
2293.00,97.50
2290.00,97.45
2287.00,97.30
2284.00,97.20
2281.00,97.22
2278.00,97.15
2275.00,97.12
2272.00,97.08
2269.00,97.10
2266.00,97.11
2263.00,97.00
2260.00,96.84
2257.00,96.87
2254.00,96.92
2251.00,96.90
2248.00,96.86
2245.00,96.78
2242.00,96.65
2239.00,96.69
2236.00,96.70
2233.00,96.56
2230.00,96.52
2227.00,96.48
2224.00,96.50
2221.00,96.51
2218.00,96.45
2215.00,96.34
2212.00,96.47
2209.00,96.28
2206.00,96.27
2203.00,96.17
2200.00,96.12
2197.00,96.19
2194.00,96.22
2191.00,96.11
2188.00,96.04
2185.00,95.83
2182.00,95.92
2179.00,95.86
2176.00,95.88
2173.00,95.88
2170.00,95.74
2167.00,95.67
2164.00,95.42
2161.00,95.30
2158.00,95.83
2155.00,96.03
2152.00,96.22
2149.00,96.20
2146.00,96.19
2143.00,96.40
2140.00,96.51
2137.00,96.66
2134.00,96.81
2131.00,96.90
2128.00,96.86
2125.00,96.88
2122.00,96.90
2119.00,96.91
2116.00,96.93
2113.00,96.98
2110.00,96.89
2107.00,97.01
2104.00,97.07
2101.00,96.94
2098.00,96.87
2095.00,96.96
2092.00,97.00
2089.00,96.96
2086.00,96.94
2083.00,96.91
2080.00,96.83
2077.00,96.74
2074.00,96.71
2071.00,96.76
2068.00,96.68
2065.00,96.71
2062.00,96.64
2059.00,96.59
2056.00,96.56
2053.00,96.44
2050.00,96.24
2047.00,96.24
2044.00,96.18
2041.00,96.08
2038.00,95.89
2035.00,95.84
2032.00,95.86
2029.00,95.93
2026.00,95.95
2023.00,95.78
2020.00,95.93
2017.00,96.02
2014.00,96.01
2011.00,96.03
2008.00,96.09
2005.00,96.33
2002.00,96.47
1999.00,96.41
1996.00,96.43
1993.00,96.40
1990.00,96.35
1987.00,96.28
1984.00,96.17
1981.00,96.00
1978.00,95.89
1975.00,96.06
1972.00,96.26
1969.00,96.19
1966.00,96.31
1963.00,96.50
1960.00,96.60
1957.00,96.73
1954.00,96.73
1951.00,96.76
1948.00,96.85
1945.00,96.89
1942.00,97.03
1939.00,97.08
1936.00,97.15
1933.00,97.13
1930.00,97.19
1927.00,97.28
1924.00,97.27
1921.00,97.40
1918.00,97.30
1915.00,97.32
1912.00,97.43
1909.00,97.52
1906.00,97.50
1903.00,97.49
1900.00,97.53
1897.00,97.56
1894.00,97.59
1891.00,97.59
1888.00,97.68
1885.00,97.69
1882.00,97.67
1879.00,97.70
1876.00,97.74
1873.00,97.74
1870.00,97.77
1867.00,97.81
1864.00,97.79
1861.00,97.85
1858.00,97.86
1855.00,97.85
1852.00,97.89
1849.00,97.92
1846.00,97.94
1843.00,97.98
1840.00,97.97
1837.00,98.03
1834.00,98.06
1831.00,98.05
1828.00,98.07
1825.00,98.06
1822.00,98.10
1819.00,98.11
1816.00,98.14
1813.00,98.16
1810.00,98.16
1807.00,98.19
1804.00,98.20
1801.00,98.22
1798.00,98.24
1795.00,98.18
1792.00,98.19
1789.00,98.20
1786.00,98.20
1783.00,98.24
1780.00,98.27
1777.00,98.26
1774.00,98.21
1771.00,98.21
1768.00,98.23
1765.00,98.23
1762.00,98.19
1759.00,98.15
1756.00,98.12
1753.00,98.07
1750.00,98.00
1747.00,97.91
1744.00,97.80
1741.00,97.72
1738.00,97.69
1735.00,97.69
1732.00,97.69
1729.00,97.72
1726.00,97.78
1723.00,97.82
1720.00,97.82
1717.00,97.79
1714.00,97.78
1711.00,97.78
1708.00,97.83
1705.00,97.84
1702.00,97.82
1699.00,97.83
1696.00,97.82
1693.00,97.75
1690.00,97.62
1687.00,97.36
1684.00,96.80
1681.00,96.14
1678.00,95.46
1675.00,94.57
1672.00,93.60
1669.00,92.19
1666.00,90.66
1663.00,88.82
1660.00,86.80
1657.00,85.06
1654.00,82.95
1651.00,79.95
1648.00,77.78
1645.00,74.47
1642.00,71.51
1639.00,68.23
1636.00,64.86
1633.00,62.47
1630.00,62.42
1627.00,64.23
1624.00,66.59
1621.00,69.42
1618.00,72.09
1615.00,75.71
1612.00,78.12
1609.00,80.23
1606.00,82.05
1603.00,84.03
1600.00,85.78
1597.00,87.04
1594.00,87.98
1591.00,88.58
1588.00,88.87
1585.00,88.88
1582.00,88.65
1579.00,88.21
1576.00,87.39
1573.00,86.46
1570.00,85.33
1567.00,83.98
1564.00,82.62
1561.00,81.41
1558.00,79.56
1555.00,78.27
1552.00,76.78
1549.00,75.06
1546.00,73.12
1543.00,70.86
1540.00,68.14
1537.00,65.84
1534.00,64.64
1531.00,64.67
1528.00,65.98
1525.00,68.29
1522.00,70.82
1519.00,73.60
1516.00,76.00
1513.00,77.94
1510.00,79.63
1507.00,81.40
1504.00,83.05
1501.00,84.06
1498.00,85.13
1495.00,86.14
1492.00,86.84
1489.00,87.51
1486.00,87.64
1483.00,86.82
1480.00,84.42
1477.00,81.24
1474.00,79.76
1471.00,81.59
1468.00,81.44
1465.00,79.85
1462.00,80.41
1459.00,81.76
1456.00,83.13
1453.00,83.85
1450.00,84.45
1447.00,84.80
1444.00,84.73
1441.00,84.51
1438.00,84.36
1435.00,84.52
1432.00,84.91
1429.00,85.39
1426.00,85.46
1423.00,84.85
1420.00,82.86
1417.00,79.88
1414.00,81.14
1411.00,84.25
1408.00,86.32
1405.00,87.48
1402.00,88.09
1399.00,88.30
1396.00,88.26
1393.00,87.89
1390.00,87.43
1387.00,86.91
1384.00,86.53
1381.00,86.00
1378.00,85.17
1375.00,84.06
1372.00,83.15
1369.00,83.10
1366.00,83.46
1363.00,83.98
1360.00,84.50
1357.00,84.94
1354.00,85.45
1351.00,85.94
1348.00,86.41
1345.00,86.82
1342.00,87.17
1339.00,87.46
1336.00,87.68
1333.00,87.79
1330.00,87.79
1327.00,87.92
1324.00,88.18
1321.00,88.37
1318.00,88.45
1315.00,88.39
1312.00,88.17
1309.00,87.84
1306.00,87.51
1303.00,87.28
1300.00,87.25
1297.00,87.27
1294.00,87.11
1291.00,86.75
1288.00,86.08
1285.00,84.90
1282.00,83.17
1279.00,81.12
1276.00,79.71
1273.00,79.51
1270.00,79.98
1267.00,80.71
1264.00,81.56
1261.00,82.29
1258.00,82.95
1255.00,83.52
1252.00,84.01
1249.00,84.43
1246.00,84.83
1243.00,85.17
1240.00,85.46
1237.00,85.79
1234.00,86.14
1231.00,86.63
1228.00,86.82
1225.00,86.49
1222.00,86.83
1219.00,87.71
1216.00,88.12
1213.00,88.25
1210.00,88.09
1207.00,87.34
1204.00,85.50
1201.00,82.58
1198.00,80.45
1195.00,81.43
1192.00,83.74
1189.00,85.22
1186.00,85.63
1183.00,85.23
1180.00,84.88
1177.00,85.34
1174.00,86.49
1171.00,87.62
1168.00,88.44
1165.00,89.02
1162.00,89.41
1159.00,89.48
1156.00,89.20
1153.00,88.72
1150.00,88.13
1147.00,87.75
1144.00,87.61
1141.00,87.45
1138.00,87.49
1135.00,88.33
1132.00,89.29
1129.00,89.85
1126.00,90.26
1123.00,90.50
1120.00,90.72
1117.00,90.86
1114.00,90.90
1111.00,90.88
1108.00,90.98
1105.00,90.96
1102.00,91.00
1099.00,91.04
1096.00,91.13
1093.00,91.14
1090.00,91.22
1087.00,91.31
1084.00,91.51
1081.00,91.64
1078.00,91.68
1075.00,91.70
1072.00,91.68
1069.00,91.30
1066.00,90.98
1063.00,90.92
1060.00,91.07
1057.00,91.26
1054.00,91.29
1051.00,91.26
1048.00,91.24
1045.00,90.98
1042.00,90.89
1039.00,90.93
1036.00,91.23
1033.00,91.55
1030.00,91.70
1027.00,91.87
1024.00,91.99
1021.00,92.02
1018.00,91.94
1015.00,91.88
1012.00,91.89
1009.00,92.04
1006.00,92.20
1003.00,92.34
1000.00,92.45
997.00,92.45
994.00,92.58
991.00,92.71
988.00,92.68
985.00,92.79
982.00,93.04
979.00,93.20
976.00,93.24
973.00,93.29
970.00,93.35
967.00,93.33
964.00,93.33
961.00,93.18
958.00,93.11
955.00,93.05
952.00,92.86
949.00,92.59
946.00,92.24
943.00,91.57
940.00,90.06
937.00,87.45
934.00,86.00
931.00,87.20
928.00,88.98
925.00,90.12
922.00,90.82
919.00,91.33
916.00,91.68
913.00,91.79
910.00,91.58
907.00,91.03
904.00,91.15
901.00,91.91
898.00,92.50
895.00,92.78
892.00,92.90
889.00,93.01
886.00,93.05
883.00,93.07
880.00,93.09
877.00,93.18
874.00,93.23
871.00,93.29
868.00,93.41
865.00,93.41
862.00,93.32
859.00,93.34
856.00,93.31
853.00,93.28
850.00,93.25
847.00,93.18
844.00,93.15
841.00,93.10
838.00,93.06
835.00,92.99
832.00,92.97
829.00,92.91
826.00,92.90
823.00,92.83
820.00,92.73
817.00,92.54
814.00,92.45
811.00,92.39
808.00,92.27
805.00,92.09
802.00,91.77
799.00,91.49
796.00,91.29
793.00,91.34
790.00,91.32
787.00,91.17
784.00,91.14
781.00,90.90
778.00,90.68
775.00,90.55
772.00,90.33
769.00,89.94
766.00,89.59
763.00,89.42
760.00,89.15
757.00,88.75
754.00,88.48
751.00,88.25
748.00,88.05
745.00,87.87
742.00,87.43
739.00,86.49
736.00,84.85
733.00,83.08
730.00,81.34
727.00,81.03
724.00,81.33
721.00,81.46
718.00,81.33
715.00,81.18
712.00,80.85
709.00,80.53
706.00,80.16
703.00,79.32
700.00,78.21
697.00,76.75
694.00,74.93
691.00,73.32
688.00,72.20
685.00,71.62
682.00,71.89
679.00,72.37
676.00,72.95
673.00,73.65
670.00,74.31
667.00,75.62
664.00,76.01
661.00,76.78
658.00,77.66
655.00,78.32
652.00,78.88
649.00,79.34
646.00,80.03
643.00,80.29
640.00,80.52
637.00,81.11
634.00,81.30
631.00,81.03
628.00,81.00
625.00,81.80
622.00,81.52
619.00,81.32
616.00,81.74
613.00,81.37
610.00,81.80
607.00,81.34
604.00,80.50
601.00,79.98
598.00,79.90
595.00,79.37
592.00,78.42
589.00,76.47
586.00,74.46
583.00,72.82
580.00,70.26
577.00,68.68
574.00,70.54
571.00,71.89
568.00,72.88
565.00,74.25
562.00,73.46
559.00,74.55
556.00,75.41
553.00,77.79
550.00,77.32