File: raw_csv_data/Nylon - 7.csv
Created as New Dataset,75 Nylon Allied Signal Fibers
cm-1,%T
4000.00,101.37
3997.00,101.41
3994.00,101.37
3991.00,101.36
3988.00,101.39
3985.00,101.40
3982.00,101.34
3979.00,101.35
3976.00,101.35
3973.00,101.37
3970.00,101.31
3967.00,101.34
3964.00,101.41
3961.00,101.41
3958.00,101.40
3955.00,101.44
3952.00,101.44
3949.00,101.42
3946.00,101.47
3943.00,101.45
3940.00,101.44
3937.00,101.46
3934.00,101.46
3931.00,101.43
3928.00,101.44
3925.00,101.43
3922.00,101.46
3919.00,101.46
3916.00,101.45
3913.00,101.44
3910.00,101.42
3907.00,101.38
3904.00,101.43
3901.00,101.49
3898.00,101.42
3895.00,101.42
3892.00,101.40
3889.00,101.47
3886.00,101.43
3883.00,101.46
3880.00,101.35
3877.00,101.35
3874.00,101.43
3871.00,101.45
3868.00,101.42
3865.00,101.39
3862.00,101.36
3859.00,101.42
3856.00,101.62
3853.00,101.60
3850.00,101.53
3847.00,101.38
3844.00,101.37
3841.00,101.42
3838.00,101.39
3835.00,101.43
3832.00,101.38
3829.00,101.36
3826.00,101.41
3823.00,101.50
3820.00,101.47
3817.00,101.42
3814.00,101.37
3811.00,101.31
3808.00,101.39
3805.00,101.40
3802.00,101.39
3799.00,101.44
3796.00,101.33
3793.00,101.36
3790.00,101.36
3787.00,101.37
3784.00,101.35
3781.00,101.34
3778.00,101.30
3775.00,101.28
3772.00,101.30
3769.00,101.32
3766.00,101.36
3763.00,101.31
3760.00,101.34
3757.00,101.37
3754.00,101.43
3751.00,101.40
3748.00,101.38
3745.00,101.33
3742.00,101.37
3739.00,101.39
3736.00,101.45
3733.00,101.44
3730.00,101.38
3727.00,101.31
3724.00,101.29
3721.00,101.25
3718.00,101.27
3715.00,101.30
3712.00,101.38
3709.00,101.35
3706.00,101.28
3703.00,101.25
3700.00,101.27
3697.00,101.29
3694.00,101.26
3691.00,101.33
3688.00,101.38
3685.00,101.30
3682.00,101.27
3679.00,101.30
3676.00,101.32
3673.00,101.39
3670.00,101.24
3667.00,101.26
3664.00,101.23
3661.00,101.23
3658.00,101.22
3655.00,101.20
3652.00,101.30
3649.00,101.30
3646.00,101.27
3643.00,101.20
3640.00,101.19
3637.00,101.19
3634.00,101.21
3631.00,101.21
3628.00,101.23
3625.00,101.23
3622.00,101.17
3619.00,101.22
3616.00,101.22
3613.00,101.13
3610.00,101.12
3607.00,101.11
3604.00,101.10
3601.00,101.05
3598.00,101.09
3595.00,101.06
3592.00,101.04
3589.00,101.05
3586.00,101.02
3583.00,100.98
3580.00,101.01
3577.00,100.94
3574.00,100.91
3571.00,100.95
3568.00,100.98
3565.00,100.96
3562.00,100.91
3559.00,100.88
3556.00,100.82
3553.00,100.78
3550.00,100.82
3547.00,100.77
3544.00,100.74
3541.00,100.74
3538.00,100.74
3535.00,100.72
3532.00,100.67
3529.00,100.65
3526.00,100.62
3523.00,100.59
3520.00,100.57
3517.00,100.53
3514.00,100.52
3511.00,100.51
3508.00,100.50
3505.00,100.51
3502.00,100.44
3499.00,100.42
3496.00,100.41
3493.00,100.41
3490.00,100.42
3487.00,100.40
3484.00,100.37
3481.00,100.39
3478.00,100.39
3475.00,100.36
3472.00,100.35
3469.00,100.32
3466.00,100.33
3463.00,100.39
3460.00,100.32
3457.00,100.27
3454.00,100.25
3451.00,100.27
3448.00,100.23
3445.00,100.29
3442.00,100.21
3439.00,100.14
3436.00,100.22
3433.00,100.22
3430.00,100.24
3427.00,100.21
3424.00,100.19
3421.00,100.16
3418.00,100.11
3415.00,100.14
3412.00,100.13
3409.00,100.09
3406.00,100.03
3403.00,100.05
3400.00,100.04
3397.00,100.03
3394.00,99.98
3391.00,99.98
3388.00,99.90
3385.00,99.86
3382.00,99.84
3379.00,99.80
3376.00,99.70
3373.00,99.65
3370.00,99.62
3367.00,99.48
3364.00,99.39
3361.00,99.35
3358.00,99.25
3355.00,99.14
3352.00,98.99
3349.00,98.85
3346.00,98.73
3343.00,98.53
3340.00,98.30
3337.00,98.17
3334.00,97.95
3331.00,97.73
3328.00,97.49
3325.00,97.20
3322.00,96.92
3319.00,96.65
3316.00,96.41
3313.00,96.10
3310.00,95.75
3307.00,95.49
3304.00,95.24
3301.00,95.01
3298.00,94.89
3295.00,94.82
3292.00,94.79
3289.00,94.85
3286.00,94.98
3283.00,95.09
3280.00,95.18
3277.00,95.35
3274.00,95.48
3271.00,95.67
3268.00,95.83
3265.00,95.98
3262.00,96.24
3259.00,96.41
3256.00,96.61
3253.00,96.80
3250.00,97.05
3247.00,97.29
3244.00,97.50
3241.00,97.66
3238.00,97.87
3235.00,98.06
3232.00,98.15
3229.00,98.29
3226.00,98.36
3223.00,98.51
3220.00,98.58
3217.00,98.67
3214.00,98.74
3211.00,98.75
3208.00,98.87
3205.00,98.91
3202.00,98.92
3199.00,99.00
3196.00,99.05
3193.00,99.10
3190.00,99.16
3187.00,99.23
3184.00,99.30
3181.00,99.35
3178.00,99.42
3175.00,99.48
3172.00,99.61
3169.00,99.66
3166.00,99.68
3163.00,99.75
3160.00,99.83
3157.00,99.88
3154.00,99.95
3151.00,99.94
3148.00,99.94
3145.00,99.96
3142.00,99.96
3139.00,99.98
3136.00,99.95
3133.00,99.95
3130.00,99.95
3127.00,99.94
3124.00,99.91
3121.00,99.89
3118.00,99.83
3115.00,99.81
3112.00,99.75
3109.00,99.65
3106.00,99.55
3103.00,99.45
3100.00,99.38
3097.00,99.32
3094.00,99.21
3091.00,99.13
3088.00,99.11
3085.00,99.08
3082.00,99.01
3079.00,99.02
3076.00,99.06
3073.00,99.10
3070.00,99.12
3067.00,99.16
3064.00,99.25
3061.00,99.30
3058.00,99.43
3055.00,99.50
3052.00,99.62
3049.00,99.74
3046.00,99.83
3043.00,99.87
3040.00,99.91
3037.00,99.99
3034.00,100.09
3031.00,100.11
3028.00,100.19
3025.00,100.22
3022.00,100.21
3019.00,100.22
3016.00,100.26
3013.00,100.26
3010.00,100.25
3007.00,100.27
3004.00,100.28
3001.00,100.23
2998.00,100.23
2995.00,100.20
2992.00,100.16
2989.00,100.08
2986.00,100.01
2983.00,99.95
2980.00,99.82
2977.00,99.62
2974.00,99.44
2971.00,99.15
2968.00,98.91
2965.00,98.62
2962.00,98.26
2959.00,97.84
2956.00,97.46
2953.00,97.05
2950.00,96.58
2947.00,96.11
2944.00,95.68
2941.00,95.33
2938.00,95.00
2935.00,94.83
2932.00,94.75
2929.00,94.74
2926.00,94.90
2923.00,95.11
2920.00,95.44
2917.00,95.78
2914.00,96.13
2911.00,96.44
2908.00,96.72
2905.00,96.95
2902.00,97.14
2899.00,97.32
2896.00,97.54
2893.00,97.76
2890.00,97.88
2887.00,97.96
2884.00,97.94
2881.00,97.83
2878.00,97.58
2875.00,97.25
2872.00,96.91
2869.00,96.61
2866.00,96.37
2863.00,96.21
2860.00,96.16
2857.00,96.29
2854.00,96.63
2851.00,97.02
2848.00,97.61
2845.00,98.23
2842.00,98.78
2839.00,99.13
2836.00,99.34
2833.00,99.51
2830.00,99.67
2827.00,99.75
2824.00,99.80
2821.00,99.85
2818.00,99.92
2815.00,99.92
2812.00,99.95
2809.00,100.03
2806.00,100.10
2803.00,100.13
2800.00,100.13
2797.00,100.14
2794.00,100.19
2791.00,100.16
2788.00,100.17
2785.00,100.20
2782.00,100.24
2779.00,100.26
2776.00,100.31
2773.00,100.33
2770.00,100.33
2767.00,100.34
2764.00,100.34
2761.00,100.37
2758.00,100.41
2755.00,100.40
2752.00,100.37
2749.00,100.38
2746.00,100.38
2743.00,100.41
2740.00,100.39
2737.00,100.37
2734.00,100.40
2731.00,100.43
2728.00,100.41
2725.00,100.42
2722.00,100.44
2719.00,100.46
2716.00,100.47
2713.00,100.47
2710.00,100.46
2707.00,100.47
2704.00,100.50
2701.00,100.48
2698.00,100.46
2695.00,100.50
2692.00,100.52
2689.00,100.51
2686.00,100.50
2683.00,100.53
2680.00,100.53
2677.00,100.54
2674.00,100.54
2671.00,100.53
2668.00,100.50
2665.00,100.51
2662.00,100.51
2659.00,100.52
2656.00,100.52
2653.00,100.50
2650.00,100.49
2647.00,100.43
2644.00,100.44
2641.00,100.45
2638.00,100.46
2635.00,100.42
2632.00,100.44
2629.00,100.43
2626.00,100.45
2623.00,100.47
2620.00,100.46
2617.00,100.42
2614.00,100.45
2611.00,100.50
2608.00,100.44
2605.00,100.44
2602.00,100.50
2599.00,100.50
2596.00,100.44
2593.00,100.45
2590.00,100.46
2587.00,100.47
2584.00,100.48
2581.00,100.45
2578.00,100.47
2575.00,100.45
2572.00,100.46
2569.00,100.47
2566.00,100.44
2563.00,100.43
2560.00,100.43
2557.00,100.41
2554.00,100.42
2551.00,100.40
2548.00,100.44
2545.00,100.44
2542.00,100.48
2539.00,100.46
2536.00,100.44
2533.00,100.44
2530.00,100.50
2527.00,100.44
2524.00,100.41
2521.00,100.43
2518.00,100.41
2515.00,100.38
2512.00,100.46
2509.00,100.49
2506.00,100.49
2503.00,100.48
2500.00,100.47
2497.00,100.45
2494.00,100.43
2491.00,100.40
2488.00,100.42
2485.00,100.46
2482.00,100.48
2479.00,100.46
2476.00,100.40
2473.00,100.43
2470.00,100.47
2467.00,100.44
2464.00,100.41
2461.00,100.42
2458.00,100.41
2455.00,100.40
2452.00,100.40
2449.00,100.48
2446.00,100.47
2443.00,100.48
2440.00,100.46
2437.00,100.46
2434.00,100.46
2431.00,100.46
2428.00,100.53
2425.00,100.51
2422.00,100.44
2419.00,100.46
2416.00,100.44
2413.00,100.43
2410.00,100.49
2407.00,100.50
2404.00,100.52
2401.00,100.52
2398.00,100.49
2395.00,100.48
2392.00,100.52
2389.00,100.52
2386.00,100.49
2383.00,100.55
2380.00,100.54
2377.00,100.54
2374.00,100.58
2371.00,100.63
2368.00,100.60
2365.00,100.51
2362.00,100.62
2359.00,100.61
2356.00,100.55
2353.00,100.59
2350.00,100.54
2347.00,100.53
2344.00,100.81
2341.00,100.68
2338.00,100.51
2335.00,100.51
2332.00,100.49
2329.00,100.46
2326.00,100.45
2323.00,100.32
2320.00,100.35
2317.00,100.34
2314.00,100.32
2311.00,100.32
2308.00,100.33
2305.00,100.34
2302.00,100.34
2299.00,100.36
2296.00,100.31
2293.00,100.26
2290.00,100.25
2287.00,100.23
2284.00,100.24
2281.00,100.28
2278.00,100.27
2275.00,100.24
2272.00,100.24
2269.00,100.21
2266.00,100.22
2263.00,100.28
2260.00,100.29
2257.00,100.23
2254.00,100.25
2251.00,100.26
2248.00,100.18
2245.00,100.13
2242.00,100.13
2239.00,100.18
2236.00,100.12
2233.00,100.11
2230.00,100.12
2227.00,100.20
2224.00,100.13
2221.00,100.11
2218.00,100.10
2215.00,100.12
2212.00,99.96
2209.00,100.04
2206.00,100.07
2203.00,100.00
2200.00,100.00
2197.00,100.08
2194.00,100.07
2191.00,100.07
2188.00,100.19
2185.00,99.97
2182.00,99.86
2179.00,99.92
2176.00,99.87
2173.00,99.88
2170.00,99.83
2167.00,99.87
2164.00,99.74
2161.00,99.69
2158.00,100.28
2155.00,100.26
2152.00,100.14
2149.00,100.02
2146.00,100.04
2143.00,100.22
2140.00,100.24
2137.00,100.20
2134.00,100.21
2131.00,100.21
2128.00,100.25
2125.00,100.25
2122.00,100.21
2119.00,100.23
2116.00,100.16
2113.00,100.20
2110.00,100.22
2107.00,100.17
2104.00,100.00
2101.00,100.05
2098.00,100.13
2095.00,100.10
2092.00,100.22
2089.00,100.22
2086.00,100.14
2083.00,100.17
2080.00,100.18
2077.00,100.08
2074.00,100.02
2071.00,100.02
2068.00,100.14
2065.00,100.11
2062.00,100.09
2059.00,100.03
2056.00,100.09
2053.00,100.10
2050.00,99.88
2047.00,99.80
2044.00,99.86
2041.00,99.89
2038.00,99.81
2035.00,99.83
2032.00,100.04
2029.00,99.93
2026.00,99.73
2023.00,99.85
2020.00,99.99
2017.00,99.98
2014.00,100.01
2011.00,99.93
2008.00,100.03
2005.00,99.94
2002.00,100.04
1999.00,100.20
1996.00,100.08
1993.00,100.01
1990.00,99.98
1987.00,99.93
1984.00,99.77
1981.00,99.72
1978.00,99.95
1975.00,100.05
1972.00,99.95
1969.00,100.02
1966.00,100.12
1963.00,100.07
1960.00,100.09
1957.00,100.17
1954.00,100.05
1951.00,100.17
1948.00,100.19
1945.00,100.17
1942.00,100.18
1939.00,100.09
1936.00,100.09
1933.00,100.22
1930.00,100.23
1927.00,100.21
1924.00,100.24
1921.00,100.18
1918.00,100.15
1915.00,100.18
1912.00,100.26
1909.00,100.20
1906.00,100.17
1903.00,100.21
1900.00,100.24
1897.00,100.20
1894.00,100.15
1891.00,100.26
1888.00,100.22
1885.00,100.20
1882.00,100.18
1879.00,100.20
1876.00,100.20
1873.00,100.21
1870.00,100.20
1867.00,100.21
1864.00,100.16
1861.00,100.17
1858.00,100.21
1855.00,100.27
1852.00,100.24
1849.00,100.27
1846.00,100.21
1843.00,100.19
1840.00,100.25
1837.00,100.23
1834.00,100.20
1831.00,100.24
1828.00,100.24
1825.00,100.31
1822.00,100.24
1819.00,100.24
1816.00,100.27
1813.00,100.24
1810.00,100.22
1807.00,100.24
1804.00,100.28
1801.00,100.25
1798.00,100.22
1795.00,100.26
1792.00,100.25
1789.00,100.23
1786.00,100.23
1783.00,100.20
1780.00,100.20
1777.00,100.20
1774.00,100.19
1771.00,100.20
1768.00,100.25
1765.00,100.21
1762.00,100.17
1759.00,100.11
1756.00,100.09
1753.00,100.06
1750.00,100.05
1747.00,100.02
1744.00,99.99
1741.00,99.96
1738.00,99.95
1735.00,99.96
1732.00,99.94
1729.00,99.90
1726.00,99.89
1723.00,99.88
1720.00,99.94
1717.00,99.89
1714.00,99.86
1711.00,99.82
1708.00,99.81
1705.00,99.80
1702.00,99.75
1699.00,99.71
1696.00,99.60
1693.00,99.45
1690.00,99.27
1687.00,99.05
1684.00,98.54
1681.00,98.05
1678.00,97.50
1675.00,96.96
1672.00,96.31
1669.00,95.57
1666.00,94.79
1663.00,93.99
1660.00,93.20
1657.00,92.41
1654.00,91.58
1651.00,90.70
1648.00,89.59
1645.00,88.57
1642.00,87.45
1639.00,86.42
1636.00,85.95
1633.00,86.13
1630.00,86.14
1627.00,86.61
1624.00,87.13
1621.00,87.96
1618.00,88.69
1615.00,90.23
1612.00,91.19
1609.00,92.26
1606.00,93.28
1603.00,94.14
1600.00,94.84
1597.00,95.37
1594.00,95.72
1591.00,95.91
1588.00,95.88
1585.00,95.74
1582.00,95.46
1579.00,95.04
1576.00,94.50
1573.00,93.89
1570.00,93.21
1567.00,92.48
1564.00,91.71
1561.00,90.89
1558.00,90.44
1555.00,89.78
1552.00,89.17
1549.00,88.63
1546.00,87.96
1543.00,87.48
1540.00,87.47
1537.00,87.48
1534.00,87.51
1531.00,87.98
1528.00,88.29
1525.00,88.89
1522.00,89.52
1519.00,90.34
1516.00,91.02
1513.00,91.59
1510.00,92.15
1507.00,92.88
1504.00,93.66
1501.00,93.96
1498.00,94.46
1495.00,94.97
1492.00,95.28
1489.00,95.63
1486.00,95.56
1483.00,95.11
1480.00,94.52
1477.00,94.09
1474.00,93.97
1471.00,94.03
1468.00,93.53
1465.00,92.82
1462.00,92.50
1459.00,92.72
1456.00,93.36
1453.00,93.53
1450.00,93.67
1447.00,93.83
1444.00,93.75
1441.00,93.57
1438.00,93.38
1435.00,93.48
1432.00,93.60
1429.00,93.94
1426.00,94.12
1423.00,93.98
1420.00,93.72
1417.00,93.72
1414.00,94.00
1411.00,94.62
1408.00,95.33
1405.00,95.86
1402.00,96.22
1399.00,96.43
1396.00,96.48
1393.00,96.39
1390.00,96.15
1387.00,95.90
1384.00,95.55
1381.00,95.12
1378.00,94.75
1375.00,94.44
1372.00,94.34
1369.00,94.36
1366.00,94.47
1363.00,94.64
1360.00,94.81
1357.00,95.01
1354.00,95.19
1351.00,95.36
1348.00,95.52
1345.00,95.63
1342.00,95.76
1339.00,95.87
1336.00,95.95
1333.00,95.99
1330.00,96.06
1327.00,96.15
1324.00,96.20
1321.00,96.15
1318.00,96.08
1315.00,95.98
1312.00,95.88
1309.00,95.81
1306.00,95.76
1303.00,95.65
1300.00,95.56
1297.00,95.60
1294.00,95.58
1291.00,95.49
1288.00,95.33
1285.00,95.16
1282.00,94.95
1279.00,94.84
1276.00,94.88
1273.00,94.87
1270.00,94.67
1267.00,94.22
1264.00,93.75
1261.00,93.52
1258.00,93.57
1255.00,93.77
1252.00,94.03
1249.00,94.25
1246.00,94.42
1243.00,94.40
1240.00,94.37
1237.00,94.40
1234.00,94.62
1231.00,95.09
1228.00,95.62
1225.00,96.06
1222.00,96.25
1219.00,96.13
1216.00,95.92
1213.00,95.65
1210.00,95.45
1207.00,95.30
1204.00,95.05
1201.00,94.82
1198.00,94.93
1195.00,95.26
1192.00,95.68
1189.00,96.13
1186.00,96.45
1183.00,96.50
1180.00,96.27
1177.00,95.74
1174.00,95.01
1171.00,94.48
1168.00,94.56
1165.00,95.03
1162.00,95.66
1159.00,96.29
1156.00,96.84
1153.00,97.16
1150.00,97.39
1147.00,97.69
1144.00,97.87
1141.00,97.97
1138.00,98.12
1135.00,98.13
1132.00,97.99
1129.00,97.77
1126.00,97.45
1123.00,97.06
1120.00,96.76
1117.00,96.62
1114.00,96.70
1111.00,96.85
1108.00,96.97
1105.00,97.19
1102.00,97.53
1099.00,97.60
1096.00,97.69
1093.00,97.73
1090.00,97.84
1087.00,97.77
1084.00,97.76
1081.00,97.68
1078.00,97.56
1075.00,97.53
1072.00,97.55
1069.00,97.60
1066.00,97.70
1063.00,97.91
1060.00,98.06
1057.00,98.20
1054.00,98.39
1051.00,98.47
1048.00,98.53
1045.00,98.62
1042.00,98.70
1039.00,98.73
1036.00,98.62
1033.00,98.56
1030.00,98.47
1027.00,98.50
1024.00,98.62
1021.00,98.68
1018.00,98.78
1015.00,98.80
1012.00,98.83
1009.00,98.81
1006.00,98.85
1003.00,98.85
1000.00,98.83
997.00,98.79
994.00,98.72
991.00,98.58
988.00,98.50
985.00,98.44
982.00,98.39
979.00,98.29
976.00,98.22
973.00,98.25
970.00,98.27
967.00,98.30
964.00,98.25
961.00,98.25
958.00,98.24
955.00,98.31
952.00,98.48
949.00,98.50
946.00,98.65
943.00,98.78
940.00,98.90
937.00,98.89
934.00,98.85
931.00,98.71
928.00,98.69
925.00,98.76
922.00,98.88
919.00,98.98
916.00,99.04
913.00,99.11
910.00,99.13
907.00,99.18
904.00,99.29
901.00,99.27
898.00,99.27
895.00,99.30
892.00,99.27
889.00,99.25
886.00,99.38
883.00,99.44
880.00,99.39
877.00,99.33
874.00,99.37
871.00,99.44
868.00,99.50
865.00,99.56
862.00,99.50
859.00,99.46
856.00,99.47
853.00,99.42
850.00,99.39
847.00,99.40
844.00,99.35
841.00,99.22
838.00,99.09
835.00,98.99
832.00,98.88
829.00,98.92
826.00,99.07
823.00,99.11
820.00,99.07
817.00,99.03
814.00,99.04
811.00,99.00
808.00,98.91
805.00,98.78
802.00,98.76
799.00,98.65
796.00,98.50
793.00,98.32
790.00,98.31
787.00,98.18
784.00,98.06
781.00,97.98
778.00,97.72
775.00,97.65
772.00,97.56
769.00,97.45
766.00,97.45
763.00,97.28
760.00,97.13
757.00,96.97
754.00,96.93
751.00,96.79
748.00,96.46
745.00,96.13
742.00,95.96
739.00,95.56
736.00,95.14
733.00,94.54
730.00,94.01
727.00,93.82
724.00,93.86
721.00,94.02
718.00,94.04
715.00,93.86
712.00,93.70
709.00,93.55
706.00,93.48
703.00,93.36
700.00,93.23
697.00,93.02
694.00,92.69
691.00,92.49
688.00,92.39
685.00,92.31
682.00,92.08
679.00,92.19
676.00,92.30
673.00,92.43
670.00,92.31
667.00,92.75
664.00,92.71
661.00,93.09
658.00,93.15
655.00,93.42
652.00,93.82
649.00,93.95
646.00,93.79
643.00,93.98
640.00,94.19
637.00,94.07
634.00,93.81
631.00,93.97
628.00,94.22
625.00,94.39
622.00,94.38
619.00,94.02
616.00,94.19
613.00,93.42
610.00,93.63
607.00,94.13
604.00,93.97
601.00,93.36
598.00,93.22
595.00,93.15
592.00,92.96
589.00,92.50
586.00,92.36
583.00,92.64
580.00,91.20
577.00,92.42
574.00,92.97
571.00,90.69
568.00,90.70
565.00,90.58
562.00,90.71
559.00,92.57
556.00,92.57
553.00,93.91
550.00,95.60