File: raw_csv_data/Nylon - 5.csv
Created as New Dataset,78 Nylon Allied Signal Fibers
cm-1,%T
4000.00,99.25
3997.00,99.31
3994.00,99.32
3991.00,99.30
3988.00,99.29
3985.00,99.29
3982.00,99.25
3979.00,99.27
3976.00,99.27
3973.00,99.23
3970.00,99.24
3967.00,99.25
3964.00,99.28
3961.00,99.28
3958.00,99.30
3955.00,99.28
3952.00,99.24
3949.00,99.28
3946.00,99.31
3943.00,99.25
3940.00,99.27
3937.00,99.24
3934.00,99.23
3931.00,99.31
3928.00,99.26
3925.00,99.20
3922.00,99.26
3919.00,99.28
3916.00,99.23
3913.00,99.22
3910.00,99.26
3907.00,99.30
3904.00,99.22
3901.00,99.16
3898.00,99.17
3895.00,99.20
3892.00,99.23
3889.00,99.20
3886.00,99.14
3883.00,99.16
3880.00,99.21
3877.00,99.20
3874.00,99.28
3871.00,99.18
3868.00,99.17
3865.00,99.19
3862.00,99.23
3859.00,99.21
3856.00,99.16
3853.00,99.13
3850.00,99.10
3847.00,99.15
3844.00,99.19
3841.00,99.13
3838.00,99.11
3835.00,99.07
3832.00,99.08
3829.00,99.08
3826.00,99.11
3823.00,99.07
3820.00,99.24
3817.00,99.09
3814.00,99.11
3811.00,99.12
3808.00,99.10
3805.00,99.16
3802.00,99.02
3799.00,98.99
3796.00,99.09
3793.00,99.11
3790.00,99.10
3787.00,99.10
3784.00,99.07
3781.00,99.02
3778.00,99.06
3775.00,99.10
3772.00,99.12
3769.00,99.13
3766.00,99.15
3763.00,99.19
3760.00,99.12
3757.00,99.08
3754.00,99.05
3751.00,99.04
3748.00,99.03
3745.00,98.99
3742.00,99.00
3739.00,99.05
3736.00,99.10
3733.00,98.98
3730.00,99.09
3727.00,99.07
3724.00,99.06
3721.00,99.05
3718.00,99.01
3715.00,99.03
3712.00,99.07
3709.00,99.02
3706.00,99.03
3703.00,98.98
3700.00,99.01
3697.00,99.07
3694.00,99.07
3691.00,98.96
3688.00,98.89
3685.00,98.94
3682.00,98.98
3679.00,98.96
3676.00,98.89
3673.00,98.84
3670.00,98.82
3667.00,98.86
3664.00,98.94
3661.00,98.98
3658.00,98.92
3655.00,99.00
3652.00,98.92
3649.00,98.86
3646.00,98.84
3643.00,98.89
3640.00,98.94
3637.00,98.94
3634.00,98.96
3631.00,98.86
3628.00,98.90
3625.00,98.85
3622.00,98.87
3619.00,98.83
3616.00,98.81
3613.00,98.79
3610.00,98.76
3607.00,98.75
3604.00,98.76
3601.00,98.77
3598.00,98.75
3595.00,98.69
3592.00,98.72
3589.00,98.62
3586.00,98.68
3583.00,98.64
3580.00,98.62
3577.00,98.62
3574.00,98.57
3571.00,98.59
3568.00,98.58
3565.00,98.52
3562.00,98.51
3559.00,98.46
3556.00,98.47
3553.00,98.44
3550.00,98.43
3547.00,98.45
3544.00,98.41
3541.00,98.34
3538.00,98.28
3535.00,98.27
3532.00,98.28
3529.00,98.26
3526.00,98.18
3523.00,98.13
3520.00,98.14
3517.00,98.13
3514.00,98.09
3511.00,98.10
3508.00,98.11
3505.00,98.10
3502.00,98.08
3499.00,98.09
3496.00,97.99
3493.00,97.92
3490.00,97.94
3487.00,97.99
3484.00,97.97
3481.00,97.96
3478.00,97.92
3475.00,97.87
3472.00,97.89
3469.00,97.92
3466.00,97.87
3463.00,97.79
3460.00,97.78
3457.00,97.77
3454.00,97.78
3451.00,97.71
3448.00,97.69
3445.00,97.66
3442.00,97.57
3439.00,97.63
3436.00,97.67
3433.00,97.60
3430.00,97.55
3427.00,97.56
3424.00,97.58
3421.00,97.53
3418.00,97.47
3415.00,97.47
3412.00,97.44
3409.00,97.43
3406.00,97.43
3403.00,97.33
3400.00,97.28
3397.00,97.31
3394.00,97.29
3391.00,97.24
3388.00,97.14
3385.00,97.10
3382.00,97.12
3379.00,97.04
3376.00,97.00
3373.00,96.92
3370.00,96.83
3367.00,96.78
3364.00,96.72
3361.00,96.61
3358.00,96.53
3355.00,96.42
3352.00,96.31
3349.00,96.17
3346.00,96.00
3343.00,95.85
3340.00,95.63
3337.00,95.37
3334.00,95.10
3331.00,94.88
3328.00,94.58
3325.00,94.20
3322.00,93.79
3319.00,93.44
3316.00,93.04
3313.00,92.66
3310.00,92.15
3307.00,91.53
3304.00,90.92
3301.00,90.49
3298.00,90.18
3295.00,90.15
3292.00,90.40
3289.00,90.78
3286.00,91.17
3283.00,91.67
3280.00,92.09
3277.00,92.43
3274.00,92.71
3271.00,92.99
3268.00,93.27
3265.00,93.57
3262.00,93.88
3259.00,94.12
3256.00,94.37
3253.00,94.63
3250.00,94.78
3247.00,94.95
3244.00,95.17
3241.00,95.36
3238.00,95.52
3235.00,95.70
3232.00,95.85
3229.00,95.90
3226.00,96.02
3223.00,96.10
3220.00,96.15
3217.00,96.23
3214.00,96.32
3211.00,96.34
3208.00,96.40
3205.00,96.49
3202.00,96.49
3199.00,96.55
3196.00,96.60
3193.00,96.64
3190.00,96.69
3187.00,96.74
3184.00,96.77
3181.00,96.85
3178.00,96.96
3175.00,97.05
3172.00,97.09
3169.00,97.19
3166.00,97.18
3163.00,97.25
3160.00,97.35
3157.00,97.41
3154.00,97.43
3151.00,97.43
3148.00,97.52
3145.00,97.52
3142.00,97.54
3139.00,97.57
3136.00,97.61
3133.00,97.62
3130.00,97.61
3127.00,97.62
3124.00,97.62
3121.00,97.54
3118.00,97.52
3115.00,97.49
3112.00,97.42
3109.00,97.37
3106.00,97.37
3103.00,97.30
3100.00,97.22
3097.00,97.17
3094.00,97.14
3091.00,97.07
3088.00,97.00
3085.00,96.98
3082.00,96.98
3079.00,96.98
3076.00,96.95
3073.00,96.95
3070.00,96.93
3067.00,96.94
3064.00,96.96
3061.00,97.04
3058.00,97.08
3055.00,97.16
3052.00,97.23
3049.00,97.32
3046.00,97.46
3043.00,97.57
3040.00,97.65
3037.00,97.73
3034.00,97.78
3031.00,97.84
3028.00,97.87
3025.00,97.91
3022.00,97.97
3019.00,98.00
3016.00,98.00
3013.00,98.06
3010.00,98.07
3007.00,98.06
3004.00,98.08
3001.00,98.03
2998.00,98.04
2995.00,98.02
2992.00,98.00
2989.00,97.90
2986.00,97.83
2983.00,97.71
2980.00,97.60
2977.00,97.44
2974.00,97.25
2971.00,96.97
2968.00,96.72
2965.00,96.44
2962.00,96.14
2959.00,95.77
2956.00,95.35
2953.00,94.77
2950.00,94.02
2947.00,93.31
2944.00,92.79
2941.00,92.45
2938.00,92.20
2935.00,92.04
2932.00,92.07
2929.00,92.27
2926.00,92.52
2923.00,92.80
2920.00,93.08
2917.00,93.44
2914.00,93.79
2911.00,94.11
2908.00,94.38
2905.00,94.55
2902.00,94.64
2899.00,94.77
2896.00,95.01
2893.00,95.30
2890.00,95.52
2887.00,95.59
2884.00,95.52
2881.00,95.30
2878.00,94.94
2875.00,94.54
2872.00,94.19
2869.00,93.97
2866.00,93.85
2863.00,93.86
2860.00,93.96
2857.00,94.08
2854.00,94.30
2851.00,94.66
2848.00,95.26
2845.00,95.91
2842.00,96.50
2839.00,96.85
2836.00,97.08
2833.00,97.18
2830.00,97.32
2827.00,97.37
2824.00,97.44
2821.00,97.51
2818.00,97.54
2815.00,97.60
2812.00,97.65
2809.00,97.69
2806.00,97.77
2803.00,97.80
2800.00,97.84
2797.00,97.86
2794.00,97.89
2791.00,97.88
2788.00,97.89
2785.00,97.94
2782.00,98.00
2779.00,98.00
2776.00,98.01
2773.00,98.01
2770.00,97.99
2767.00,98.03
2764.00,98.08
2761.00,98.08
2758.00,98.10
2755.00,98.08
2752.00,98.07
2749.00,98.09
2746.00,98.08
2743.00,98.12
2740.00,98.09
2737.00,98.12
2734.00,98.15
2731.00,98.16
2728.00,98.17
2725.00,98.20
2722.00,98.20
2719.00,98.23
2716.00,98.22
2713.00,98.20
2710.00,98.22
2707.00,98.25
2704.00,98.25
2701.00,98.22
2698.00,98.24
2695.00,98.24
2692.00,98.27
2689.00,98.28
2686.00,98.29
2683.00,98.29
2680.00,98.30
2677.00,98.30
2674.00,98.33
2671.00,98.33
2668.00,98.32
2665.00,98.33
2662.00,98.31
2659.00,98.29
2656.00,98.29
2653.00,98.26
2650.00,98.26
2647.00,98.21
2644.00,98.22
2641.00,98.21
2638.00,98.23
2635.00,98.23
2632.00,98.20
2629.00,98.19
2626.00,98.21
2623.00,98.18
2620.00,98.17
2617.00,98.16
2614.00,98.18
2611.00,98.14
2608.00,98.14
2605.00,98.17
2602.00,98.16
2599.00,98.14
2596.00,98.16
2593.00,98.16
2590.00,98.15
2587.00,98.17
2584.00,98.12
2581.00,98.09
2578.00,98.13
2575.00,98.12
2572.00,98.08
2569.00,98.05
2566.00,98.07
2563.00,98.09
2560.00,98.07
2557.00,98.09
2554.00,98.11
2551.00,98.09
2548.00,98.12
2545.00,98.11
2542.00,98.11
2539.00,98.08
2536.00,98.06
2533.00,98.09
2530.00,98.08
2527.00,98.07
2524.00,98.17
2521.00,98.17
2518.00,98.18
2515.00,98.16
2512.00,98.15
2509.00,98.07
2506.00,98.07
2503.00,98.13
2500.00,98.15
2497.00,98.11
2494.00,98.16
2491.00,98.20
2488.00,98.17
2485.00,98.14
2482.00,98.13
2479.00,98.12
2476.00,98.16
2473.00,98.10
2470.00,98.10
2467.00,98.08
2464.00,98.11
2461.00,98.13
2458.00,98.14
2455.00,98.12
2452.00,98.08
2449.00,98.12
2446.00,98.08
2443.00,98.11
2440.00,98.09
2437.00,98.16
2434.00,98.13
2431.00,98.10
2428.00,98.14
2425.00,98.17
2422.00,98.19
2419.00,98.14
2416.00,98.19
2413.00,98.20
2410.00,98.19
2407.00,98.15
2404.00,98.17
2401.00,98.19
2398.00,98.18
2395.00,98.24
2392.00,98.26
2389.00,98.25
2386.00,98.27
2383.00,98.32
2380.00,98.32
2377.00,98.45
2374.00,98.49
2371.00,98.39
2368.00,98.42
2365.00,98.48
2362.00,98.33
2359.00,98.42
2356.00,98.46
2353.00,98.43
2350.00,98.49
2347.00,98.67
2344.00,98.48
2341.00,98.36
2338.00,98.39
2335.00,98.47
2332.00,98.50
2329.00,98.35
2326.00,98.29
2323.00,98.21
2320.00,98.09
2317.00,98.07
2314.00,98.15
2311.00,98.18
2308.00,98.17
2305.00,98.20
2302.00,98.17
2299.00,98.16
2296.00,98.13
2293.00,98.00
2290.00,98.00
2287.00,97.98
2284.00,97.97
2281.00,98.01
2278.00,97.95
2275.00,97.92
2272.00,97.93
2269.00,97.97
2266.00,97.93
2263.00,97.93
2260.00,97.88
2257.00,97.73
2254.00,97.74
2251.00,97.83
2248.00,97.82
2245.00,97.82
2242.00,97.74
2239.00,97.69
2236.00,97.67
2233.00,97.67
2230.00,97.65
2227.00,97.76
2224.00,97.78
2221.00,97.75
2218.00,97.71
2215.00,97.62
2212.00,97.53
2209.00,97.62
2206.00,97.59
2203.00,97.50
2200.00,97.50
2197.00,97.53
2194.00,97.64
2191.00,97.59
2188.00,97.52
2185.00,97.44
2182.00,97.51
2179.00,97.48
2176.00,97.39
2173.00,97.35
2170.00,97.30
2167.00,97.27
2164.00,97.36
2161.00,97.43
2158.00,97.43
2155.00,97.44
2152.00,97.43
2149.00,97.47
2146.00,97.54
2143.00,97.69
2140.00,97.72
2137.00,97.65
2134.00,97.71
2131.00,97.68
2128.00,97.77
2125.00,97.77
2122.00,97.84
2119.00,97.86
2116.00,97.82
2113.00,97.76
2110.00,97.76
2107.00,97.78
2104.00,97.79
2101.00,97.78
2098.00,97.79
2095.00,97.78
2092.00,97.75
2089.00,97.67
2086.00,97.70
2083.00,97.72
2080.00,97.74
2077.00,97.69
2074.00,97.76
2071.00,97.67
2068.00,97.64
2065.00,97.79
2062.00,97.71
2059.00,97.62
2056.00,97.80
2053.00,97.81
2050.00,97.55
2047.00,97.46
2044.00,97.40
2041.00,97.35
2038.00,97.59
2035.00,97.39
2032.00,97.34
2029.00,97.37
2026.00,97.28
2023.00,97.25
2020.00,97.50
2017.00,97.47
2014.00,97.37
2011.00,97.54
2008.00,97.45
2005.00,97.48
2002.00,97.40
1999.00,97.56
1996.00,97.67
1993.00,97.58
1990.00,97.63
1987.00,97.60
1984.00,97.51
1981.00,97.41
1978.00,97.44
1975.00,97.63
1972.00,97.63
1969.00,97.61
1966.00,97.53
1963.00,97.59
1960.00,97.72
1957.00,97.83
1954.00,97.75
1951.00,97.78
1948.00,97.78
1945.00,97.67
1942.00,97.76
1939.00,97.88
1936.00,97.90
1933.00,97.93
1930.00,97.89
1927.00,97.87
1924.00,97.89
1921.00,97.92
1918.00,97.88
1915.00,97.91
1912.00,97.95
1909.00,97.93
1906.00,97.96
1903.00,98.00
1900.00,98.02
1897.00,98.01
1894.00,98.00
1891.00,97.98
1888.00,97.97
1885.00,97.98
1882.00,98.08
1879.00,98.05
1876.00,97.99
1873.00,98.07
1870.00,98.12
1867.00,98.12
1864.00,98.07
1861.00,98.08
1858.00,98.09
1855.00,98.13
1852.00,98.12
1849.00,98.13
1846.00,98.13
1843.00,98.16
1840.00,98.16
1837.00,98.20
1834.00,98.16
1831.00,98.16
1828.00,98.15
1825.00,98.15
1822.00,98.18
1819.00,98.18
1816.00,98.19
1813.00,98.22
1810.00,98.20
1807.00,98.15
1804.00,98.16
1801.00,98.17
1798.00,98.16
1795.00,98.18
1792.00,98.20
1789.00,98.22
1786.00,98.22
1783.00,98.19
1780.00,98.17
1777.00,98.15
1774.00,98.13
1771.00,98.17
1768.00,98.15
1765.00,98.12
1762.00,98.10
1759.00,98.09
1756.00,98.04
1753.00,97.99
1750.00,97.96
1747.00,97.93
1744.00,97.89
1741.00,97.83
1738.00,97.75
1735.00,97.74
1732.00,97.74
1729.00,97.72
1726.00,97.71
1723.00,97.69
1720.00,97.70
1717.00,97.68
1714.00,97.70
1711.00,97.72
1708.00,97.66
1705.00,97.69
1702.00,97.70
1699.00,97.53
1696.00,97.45
1693.00,97.36
1690.00,97.20
1687.00,96.94
1684.00,96.51
1681.00,96.06
1678.00,95.68
1675.00,95.17
1672.00,94.53
1669.00,93.67
1666.00,92.74
1663.00,91.86
1660.00,91.10
1657.00,90.51
1654.00,89.70
1651.00,88.49
1648.00,87.41
1645.00,85.89
1642.00,84.53
1639.00,83.41
1636.00,82.94
1633.00,83.19
1630.00,83.86
1627.00,84.73
1624.00,85.66
1621.00,86.72
1618.00,87.76
1615.00,89.11
1612.00,90.02
1609.00,90.95
1606.00,91.85
1603.00,92.66
1600.00,93.32
1597.00,93.79
1594.00,94.07
1591.00,94.23
1588.00,94.25
1585.00,94.18
1582.00,94.00
1579.00,93.67
1576.00,93.18
1573.00,92.76
1570.00,92.21
1567.00,91.60
1564.00,91.00
1561.00,90.48
1558.00,89.64
1555.00,88.95
1552.00,88.09
1549.00,87.08
1546.00,86.05
1543.00,85.06
1540.00,84.38
1537.00,84.22
1534.00,84.46
1531.00,85.00
1528.00,85.67
1525.00,86.44
1522.00,87.21
1519.00,88.07
1516.00,88.82
1513.00,89.54
1510.00,90.16
1507.00,90.87
1504.00,91.58
1501.00,92.07
1498.00,92.59
1495.00,93.07
1492.00,93.36
1489.00,93.54
1486.00,93.33
1483.00,92.61
1480.00,91.81
1477.00,91.51
1474.00,91.71
1471.00,91.95
1468.00,91.50
1465.00,90.56
1462.00,90.33
1459.00,90.84
1456.00,91.44
1453.00,91.50
1450.00,91.64
1447.00,91.85
1444.00,91.93
1441.00,91.90
1438.00,91.82
1435.00,91.78
1432.00,91.91
1429.00,92.19
1426.00,92.21
1423.00,91.83
1420.00,91.33
1417.00,91.03
1414.00,91.29
1411.00,91.98
1408.00,92.81
1405.00,93.44
1402.00,93.80
1399.00,93.99
1396.00,94.09
1393.00,94.01
1390.00,93.82
1387.00,93.56
1384.00,93.21
1381.00,92.75
1378.00,92.26
1375.00,91.85
1372.00,91.72
1369.00,91.85
1366.00,92.02
1363.00,92.23
1360.00,92.50
1357.00,92.70
1354.00,92.88
1351.00,93.09
1348.00,93.25
1345.00,93.36
1342.00,93.45
1339.00,93.53
1336.00,93.60
1333.00,93.70
1330.00,93.81
1327.00,93.91
1324.00,93.97
1321.00,93.93
1318.00,93.84
1315.00,93.80
1312.00,93.77
1309.00,93.69
1306.00,93.59
1303.00,93.52
1300.00,93.47
1297.00,93.42
1294.00,93.22
1291.00,93.08
1288.00,93.11
1285.00,93.05
1282.00,92.85
1279.00,92.72
1276.00,92.64
1273.00,92.46
1270.00,91.86
1267.00,90.97
1264.00,90.39
1261.00,90.46
1258.00,90.85
1255.00,91.27
1252.00,91.71
1249.00,92.03
1246.00,92.16
1243.00,92.22
1240.00,92.21
1237.00,92.32
1234.00,92.61
1231.00,93.04
1228.00,93.48
1225.00,93.90
1222.00,94.09
1219.00,93.84
1216.00,93.45
1213.00,93.31
1210.00,93.28
1207.00,93.07
1204.00,92.39
1201.00,91.43
1198.00,91.45
1195.00,92.28
1192.00,93.02
1189.00,93.54
1186.00,93.87
1183.00,94.06
1180.00,94.05
1177.00,93.66
1174.00,93.17
1171.00,92.76
1168.00,92.66
1165.00,92.93
1162.00,93.39
1159.00,93.73
1156.00,94.09
1153.00,94.36
1150.00,94.58
1147.00,94.84
1144.00,95.01
1141.00,95.20
1138.00,95.29
1135.00,95.28
1132.00,95.14
1129.00,94.81
1126.00,94.33
1123.00,94.08
1120.00,94.08
1117.00,93.99
1114.00,93.99
1111.00,94.02
1108.00,94.11
1105.00,94.29
1102.00,94.47
1099.00,94.59
1096.00,94.72
1093.00,94.72
1090.00,94.73
1087.00,94.77
1084.00,94.79
1081.00,94.64
1078.00,94.61
1075.00,94.53
1072.00,94.46
1069.00,94.41
1066.00,94.45
1063.00,94.48
1060.00,94.43
1057.00,94.52
1054.00,94.67
1051.00,94.77
1048.00,94.83
1045.00,94.82
1042.00,94.80
1039.00,94.75
1036.00,94.65
1033.00,94.47
1030.00,94.37
1027.00,94.40
1024.00,94.53
1021.00,94.69
1018.00,94.86
1015.00,94.88
1012.00,94.94
1009.00,94.97
1006.00,95.03
1003.00,95.07
1000.00,95.09
997.00,95.10
994.00,95.12
991.00,95.12
988.00,95.06
985.00,95.01
982.00,95.02
979.00,95.07
976.00,95.10
973.00,95.06
970.00,95.13
967.00,95.20
964.00,95.08
961.00,94.90
958.00,94.92
955.00,95.06
952.00,95.13
949.00,95.31
946.00,95.58
943.00,95.74
940.00,95.82
937.00,95.83
934.00,95.65
931.00,95.38
928.00,95.24
925.00,95.45
922.00,95.68
919.00,95.91
916.00,96.12
913.00,96.19
910.00,96.22
907.00,96.28
904.00,96.27
901.00,96.27
898.00,96.33
895.00,96.35
892.00,96.29
889.00,96.34
886.00,96.44
883.00,96.43
880.00,96.46
877.00,96.52
874.00,96.55
871.00,96.55
868.00,96.59
865.00,96.60
862.00,96.60
859.00,96.64
856.00,96.58
853.00,96.64
850.00,96.66
847.00,96.63
844.00,96.62
841.00,96.53
838.00,96.35
835.00,96.07
832.00,96.03
829.00,96.18
826.00,96.41
823.00,96.54
820.00,96.38
817.00,96.34
814.00,96.30
811.00,96.25
808.00,96.26
805.00,96.16
802.00,96.01
799.00,96.01
796.00,96.00
793.00,95.94
790.00,95.88
787.00,95.74
784.00,95.65
781.00,95.64
778.00,95.57
775.00,95.49
772.00,95.34
769.00,95.35
766.00,95.30
763.00,95.17
760.00,94.98
757.00,94.86
754.00,94.80
751.00,94.66
748.00,94.45
745.00,94.29
742.00,94.07
739.00,93.78
736.00,93.30
733.00,92.57
730.00,91.91
727.00,91.96
724.00,92.05
721.00,91.94
718.00,91.88
715.00,91.71
712.00,91.55
709.00,91.28
706.00,91.13
703.00,90.78
700.00,90.55
697.00,90.09
694.00,89.63
691.00,89.29
688.00,89.04
685.00,88.82
682.00,88.76
679.00,88.91
676.00,88.99
673.00,89.23
670.00,89.40
667.00,89.54
664.00,89.95
661.00,90.15
658.00,90.25
655.00,90.59
652.00,90.98
649.00,91.21
646.00,91.38
643.00,91.32
640.00,91.51
637.00,91.26
634.00,90.89
631.00,91.06
628.00,91.68
625.00,91.56
622.00,91.54
619.00,91.80
616.00,91.50
613.00,91.22
610.00,91.08
607.00,91.26
604.00,91.84
601.00,91.22
598.00,91.87
595.00,91.60
592.00,91.34
589.00,91.27
586.00,91.02
583.00,90.09
580.00,89.76
577.00,89.02
574.00,87.60
571.00,86.65
568.00,89.44
565.00,91.22
562.00,89.55
559.00,87.92
556.00,88.80
553.00,91.09
550.00,90.62